No, waktu, accx, accY, accZ, gyroX, gyroY, gyroZ, roll, pitch,Akselerasi
1, 2018-07-10 08:18:28,-6395,2059,1527,3840,2011,3335,-34.2,6.64,6889.646943
2, 2018-07-10 08:18:29,-6535,1331,1673,3299,1738,3786,-34.44,6.98,6875.806498
3, 2018-07-10 08:18:29,-6849,1214,1519,2646,419,3181,-34.59,7.25,7119.688055
4, 2018-07-10 08:18:29,-7120,1306,1760,231,462,2365,-34.69,7.36,7449.67355
5, 2018-07-10 08:18:29,-7119,1207,1636,-1779,497,1965,-34.78,7.28,7403.614388
6, 2018-07-10 08:18:29,-7739,1537,1274,-3140,-980,1901,-34.84,7.01,7992.344212
7, 2018-07-10 08:18:29,-8192,2384,647,-2891,-983,2152,-34.87,6.85,8556.338528
8, 2018-07-10 08:18:29,-8192,3235,903,-2132,-1832,1727,-34.92,6.67,8853.784389
9, 2018-07-10 08:18:29,-8192,3665,439,-1737,-3298,1085,-34.84,6.6,8985.199497
10, 2018-07-10 08:18:29,-8192,4498,1050,-264,-3297,-297,-34.69,6.6,9404.433423
11, 2018-07-10 08:18:29,-8192,5557,3680,-247,-2449,-433,-34.66,6.66,10560.84812
12, 2018-07-10 08:18:29,-8192,3955,2156,-350,-3579,936,-34.55,6.69,9348.755265
13, 2018-07-10 08:18:29,-8192,758,2834,537,3406,-668,-34.82,6.76,8701.435744
14, 2018-07-10 08:18:29,-6384,-689,4796,-3109,5429,-3559,-35.4,6.57,8014.473969
15, 2018-07-10 08:18:29,-4972,-137,5040,-5551,4518,-4912,-35.71,6.23,7081.041802
16, 2018-07-10 08:18:29,-5228,981,5627,-6438,490,-5275,-35.8,5.84,7743.221164
17, 2018-07-10 08:18:29,-6541,1376,3569,-6186,-3553,-4493,-35.65,5.47,7577.322614
18, 2018-07-10 08:18:29,-7512,1634,1702,-5164,-2578,-3154,-35.52,5.15,7873.811275
19, 2018-07-10 08:18:29,-6899,2117,889,-3205,3117,-1791,-35.68,4.94,7271.05295
20, 2018-07-10 08:18:29,-5527,1859,1586,-1173,6722,-708,-36.09,4.87,6043.09573
21, 2018-07-10 08:18:29,-4156,900,1764,-116,4476,-1681,-36.58,4.85,4603.697644
22, 2018-07-10 08:18:29,-4484,262,2309,-912,421,-3442,-36.71,4.8,5050.384243
23, 2018-07-10 08:18:29,-5054,150,2442,-1651,-1216,-4211,-36.65,4.7,5615.049421
24, 2018-07-10 08:18:29,-6319,220,1672,-2945,-1107,-3345,-36.53,4.44,6540.163989
25, 2018-07-10 08:18:29,-6985,600,1373,-2773,348,-2450,-36.58,4.27,7143.903275
26, 2018-07-10 08:18:29,-7447,1064,965,-1964,1756,-1867,-36.73,4.14,7584.268587
27, 2018-07-10 08:18:29,-7943,1685,969,-1063,2008,-1518,-37.02,4.05,8177.373356
28, 2018-07-10 08:18:29,-8054,1377,638,-301,1870,-1700,-37.22,4.03,8195.736026
29, 2018-07-10 08:18:29,-7834,752,419,1003,2440,-2330,-37.54,4.1,7881.15607
30, 2018-07-10 08:18:29,-7475,77,942,1137,1229,-2726,-37.8,4.2,7534.515114
31, 2018-07-10 08:18:30,-7914,214,876,867,-754,-2031,-37.86,4.27,7965.209853
32, 2018-07-10 08:18:30,-8192,142,53,1720,700,-1426,-38.03,4.39,8193.402041
33, 2018-07-10 08:18:30,-8192,287,643,2959,-176,-633,-38.21,4.62,8222.206638
34, 2018-07-10 08:18:30,-8192,1221,772,2744,-631,1124,-38.34,4.93,8318.394617
35, 2018-07-10 08:18:30,-8192,27,1542,2825,-3566,1845,-38.28,5.09,8335.907689
36, 2018-07-10 08:18:30,-8192,-1487,3019,-163,-10425,-588,-37.65,5.1,8856.319439
37, 2018-07-10 08:18:30,-8192,502,511,-701,-7006,-1343,-37.25,5.05,8223.259025
38, 2018-07-10 08:18:30,-8192,2175,3233,2434,5092,799,-37.56,5.2,9071.481577
39, 2018-07-10 08:18:30,-4485,1517,4920,4828,7818,3611,-38.33,5.62,6828.097392
40, 2018-07-10 08:18:30,-3563,1236,5262,4131,-210,4737,-38.55,6.04,6473.894423
41, 2018-07-10 08:18:30,-5849,643,4120,3684,-6372,5508,-38.23,6.27,7183.22003
42, 2018-07-10 08:18:30,-8192,959,2865,3861,-7043,4154,-37.86,6.5,8731.367018
43, 2018-07-10 08:18:30,-8192,1455,1738,4475,-1045,2879,-37.82,6.77,8499.796056
44, 2018-07-10 08:18:30,-7400,1979,2244,3987,5061,1490,-38.29,7.18,7981.978264
45, 2018-07-10 08:18:30,-5999,2250,2500,3162,3438,2104,-38.73,7.51,6877.535969
46, 2018-07-10 08:18:30,-5820,1759,1988,3703,151,3467,-38.83,7.84,6396.766761
47, 2018-07-10 08:18:30,-6157,1597,1579,4416,732,3764,-38.87,8.24,6553.800348
48, 2018-07-10 08:18:30,-6108,1739,1767,4866,3053,3036,-39.12,8.68,6591.970419
49, 2018-07-10 08:18:30,-5908,1355,1986,3660,1904,2799,-39.37,9.07,6378.45475
50, 2018-07-10 08:18:30,-6525,1538,1853,1322,-69,3003,-39.46,9.26,6955.190723
51, 2018-07-10 08:18:30,-7423,1328,1757,-772,-1122,2937,-39.43,9.25,7742.839402
52, 2018-07-10 08:18:30,-7814,1446,1337,-1846,-139,1849,-39.47,9.15,8058.354733
53, 2018-07-10 08:18:30,-7784,2446,670,-2329,1129,399,-39.64,8.96,8186.725353
54, 2018-07-10 08:18:30,-6816,3029,1314,-2419,1682,-24,-39.86,8.78,7573.591816
55, 2018-07-10 08:18:30,-6501,2878,1070,-2177,-139,23,-39.94,8.61,7189.63038
56, 2018-07-10 08:18:30,-7314,2226,1043,-2347,-1967,300,-39.86,8.43,7716.056052
57, 2018-07-10 08:18:30,-7913,1956,772,-3257,-2185,8,-39.79,8.26,8187.642457
58, 2018-07-10 08:18:31,-8192,1813,555,-3247,-2187,-228,-39.75,8.07,8408.558616
59, 2018-07-10 08:18:31,-8192,2348,1027,-3257,-1358,-587,-39.77,7.88,8583.513092
60, 2018-07-10 08:18:31,-8192,4793,2760,-3383,-5098,1076,-39.63,7.73,9884.296282
61, 2018-07-10 08:18:31,-8192,6355,1204,-2648,-7484,2941,-39.27,7.62,10437.64844
62, 2018-07-10 08:18:31,-8192,3582,2509,-585,3418,527,-39.38,7.61,9286.262381
63, 2018-07-10 08:18:31,-8192,1254,2936,-1690,6746,-2506,-39.87,7.54,8792.125795
64, 2018-07-10 08:18:31,-4841,86,4004,-4510,4920,-4508,-40.43,7.2,6282.888906
65, 2018-07-10 08:18:31,-4272,1213,5757,-5771,2029,-5537,-40.58,6.86,7270.791016
66, 2018-07-10 08:18:31,-5333,1645,6098,-6607,-2911,-5651,-40.47,6.47,8266.348529
67, 2018-07-10 08:18:31,-7300,1468,4133,-6419,-5486,-4807,-40.17,6.08,8516.26168
68, 2018-07-10 08:18:31,-8192,1542,1549,-5317,-2154,-3830,-40.06,5.75,8478.562909
69, 2018-07-10 08:18:31,-7509,1760,523,-2937,4538,-2300,-40.32,5.55,7730.214098
70, 2018-07-10 08:18:31,-6029,1419,1471,-549,8917,-1567,-40.84,5.5,6366.022542
71, 2018-07-10 08:18:31,-3992,678,2312,239,6330,-2686,-41.54,5.51,4662.734391
72, 2018-07-10 08:18:31,-4187,112,2447,-1306,-10,-4822,-41.65,5.44,4850.909399
73, 2018-07-10 08:18:31,-4910,-119,2108,-2684,-414,-5983,-41.6,5.28,5344.710001
74, 2018-07-10 08:18:31,-5798,-300,1725,-2694,879,-4216,-41.65,4.99,6056.6021
75, 2018-07-10 08:18:31,-6464,356,1738,-2392,1481,-2563,-41.75,4.84,6703.034835
76, 2018-07-10 08:18:31,-7403,1166,1265,-1605,1709,-1089,-41.89,4.73,7600.275653
77, 2018-07-10 08:18:31,-8192,1166,426,-6,1612,-752,-42.18,4.7,8285.523279
78, 2018-07-10 08:18:31,-8192,376,164,1106,2046,-1557,-42.49,4.78,8202.264078
79, 2018-07-10 08:18:31,-8034,562,917,1299,1482,-1535,-42.79,4.89,8105.670176
80, 2018-07-10 08:18:31,-7875,805,975,1704,1575,-1537,-42.95,4.99,7975.855753
81, 2018-07-10 08:18:31,-7253,595,1456,3180,694,-1359,-43.11,5.23,7421.588105
82, 2018-07-10 08:18:31,-7300,-143,873,3666,-783,-1162,-43.15,5.56,7353.405878
83, 2018-07-10 08:18:31,-8192,-25,-65,4875,135,-1320,-43.25,5.94,8192.296015
84, 2018-07-10 08:18:31,-8192,89,896,3532,-2863,1018,-43.21,6.28,8241.334904
85, 2018-07-10 08:18:32,-8192,-1269,3063,941,-5437,559,-43.03,6.36,8837.487992
86, 2018-07-10 08:18:32,-8192,-418,2344,-969,-11548,-940,-42.47,6.29,8530.997831
87, 2018-07-10 08:18:32,-8192,1539,2152,303,730,170,-42.2,6.25,8608.628753
88, 2018-07-10 08:18:32,-8192,1764,4372,3455,8270,2024,-42.74,6.44,9451.716458
89, 2018-07-10 08:18:32,-4970,2714,3782,4503,5505,4240,-43.35,6.86,6809.568268
90, 2018-07-10 08:18:32,-4466,2017,5001,5179,1236,4371,-43.46,7.19,7001.674514
91, 2018-07-10 08:18:32,-5636,540,3955,3181,-2676,4333,-43.33,7.41,6906.382628
92, 2018-07-10 08:18:32,-6913,-36,2007,1554,-376,2677,-43.22,7.57,7198.535546
93, 2018-07-10 08:18:32,-6271,803,2186,1519,2488,2455,-43.42,7.69,6689.457826
94, 2018-07-10 08:18:32,-5845,1949,2011,1270,2702,3283,-43.67,7.82,6481.26122
95, 2018-07-10 08:18:32,-5733,2146,1968,956,342,3656,-43.79,7.94,6430.056687
96, 2018-07-10 08:18:32,-5825,1769,1342,1911,-1277,3880,-43.7,8.11,6233.855147
97, 2018-07-10 08:18:32,-6107,1757,1010,2808,-460,3543,-43.66,8.27,6434.485061
98, 2018-07-10 08:18:32,-6085,2048,1308,3528,1397,3100,-43.73,8.49,6552.281511
99, 2018-07-10 08:18:32,-5776,1843,2048,2643,1418,2672,-43.88,8.78,6399.463181
100, 2018-07-10 08:18:32,-6561,1202,2084,1015,-938,2289,-43.89,8.92,6988.174368
101, 2018-07-10 08:18:32,-7371,985,1147,-102,-1494,1415,-43.83,8.93,7524.458452
102, 2018-07-10 08:18:32,-7998,1545,563,-1077,-345,1249,-43.86,8.86,8165.292279
103, 2018-07-10 08:18:32,-7888,2524,675,-1544,564,1700,-43.94,8.78,8309.437105
104, 2018-07-10 08:18:32,-7370,2914,1277,-1110,1198,1963,-44.12,8.7,8027.392167
105, 2018-07-10 08:18:32,-7193,2306,881,-1129,82,1224,-44.21,8.63,7604.804139
106, 2018-07-10 08:18:32,-7191,2675,633,-818,-865,1558,-44.22,8.57,7698.493034
107, 2018-07-10 08:18:32,-7363,3316,1633,-847,-3290,2679,-44.06,8.54,8238.708273
108, 2018-07-10 08:18:32,-8192,3347,765,-1126,-5311,2216,-43.85,8.51,8882.370067
109, 2018-07-10 08:18:32,-8192,3268,1014,-1362,-5030,-125,-43.62,8.47,8877.887361
110, 2018-07-10 08:18:32,-8192,4483,1817,-1896,-700,-2011,-43.63,8.39,9513.550441
111, 2018-07-10 08:18:32,-8192,4368,3289,-3815,-2955,-666,-43.57,8.24,9849.152705
112, 2018-07-10 08:18:32,-8192,2781,2112,-3260,-1020,-50,-43.57,8.05,8905.243905
113, 2018-07-10 08:18:32,-8192,1299,3146,-3113,3625,-1243,-43.82,7.88,8870.940255
114, 2018-07-10 08:18:32,-7293,69,3907,-5305,4705,-2635,-44.17,7.57,8273.890197
115, 2018-07-10 08:18:33,-5697,132,4536,-8136,3348,-3910,-44.41,7.09,7283.442112
116, 2018-07-10 08:18:33,-5964,1778,4832,-7329,-787,-4507,-44.44,6.39,7879.010344
117, 2018-07-10 08:18:33,-6965,2297,3716,-6394,-1416,-3774,-44.38,6,8221.684134
118, 2018-07-10 08:18:33,-7193,2000,1871,-4713,1912,-2289,-44.5,5.56,7696.745416
119, 2018-07-10 08:18:33,-6261,2040,1525,-2706,4862,-1935,-44.78,5.38,6759.241525
120, 2018-07-10 08:18:33,-5083,1901,1785,-976,6245,-2393,-45.15,5.32,5712.872745
121, 2018-07-10 08:18:33,-4508,998,1906,-492,4604,-3264,-45.43,5.29,4995.087987
122, 2018-07-10 08:18:33,-4884,284,1882,-910,2180,-4898,-45.67,5.22,5241.758865
123, 2018-07-10 08:18:33,-5470,-302,2137,-2297,1362,-5965,-45.78,5.02,5880.380345
124, 2018-07-10 08:18:33,-5633,-282,1607,-2230,1746,-4998,-45.87,4.87,5864.525727
125, 2018-07-10 08:18:33,-5751,330,1395,-1336,1811,-3286,-45.98,4.77,5926.966003
126, 2018-07-10 08:18:33,-6157,1113,1494,-423,2529,-1504,-46.13,4.73,6432.686375
127, 2018-07-10 08:18:33,-7480,1745,1446,815,1318,-53,-46.33,4.79,7815.775138
128, 2018-07-10 08:18:33,-8192,1298,185,2228,1131,-922,-46.55,4.98,8296.257771
129, 2018-07-10 08:18:33,-8192,254,524,2706,2878,-2518,-46.89,5.22,8212.670455
130, 2018-07-10 08:18:33,-7943,-177,1498,2456,3084,-2289,-47.3,5.43,8084.960235
131, 2018-07-10 08:18:33,-7865,241,720,2173,276,-1466,-47.45,5.62,7901.563516
132, 2018-07-10 08:18:33,-7742,48,1241,2522,-405,-1727,-47.53,5.83,7840.978829
133, 2018-07-10 08:18:33,-8173,132,954,2093,-1633,-1369,-47.5,5.95,8229.54853
134, 2018-07-10 08:18:33,-8192,861,-130,2539,-27,-1178,-47.55,6.09,8238.148154
135, 2018-07-10 08:18:33,-8192,209,1051,2451,-6243,717,-47.4,6.33,8261.788305
136, 2018-07-10 08:18:33,-8192,-1303,3488,-295,-8899,-163,-46.85,6.33,8998.489707
137, 2018-07-10 08:18:33,-8192,1112,521,-547,-9746,-823,-46.3,6.29,8283.528777
138, 2018-07-10 08:18:33,-8192,1904,3560,3059,7293,656,-46.6,6.46,9132.780519
139, 2018-07-10 08:18:33,-4097,2389,4815,5696,6958,3862,-47.37,6.97,6758.47283
140, 2018-07-10 08:18:33,-4301,1853,5047,5368,-3008,5192,-47.23,7.34,6885.08671
141, 2018-07-10 08:18:33,-7868,725,2510,4660,-6379,4771,-46.7,7.79,8290.42514
142, 2018-07-10 08:18:33,-8192,110,1449,4172,812,2929,-46.65,8.14,8319.889723
143, 2018-07-10 08:18:33,-6632,690,2163,2905,5696,1874,-47.16,8.45,7009.856846
144, 2018-07-10 08:18:33,-5235,1109,2209,1038,3868,2662,-47.58,8.58,5789.195713
145, 2018-07-10 08:18:34,-4781,1639,1562,846,1158,4102,-47.71,8.67,5290.002457
146, 2018-07-10 08:18:34,-4950,1924,1456,608,672,4391,-47.73,8.71,5506.742413
147, 2018-07-10 08:18:34,-5264,2254,1478,977,816,4270,-47.76,8.78,5913.940818
148, 2018-07-10 08:18:34,-5973,2321,1767,2020,1056,3913,-47.82,8.91,6647.259511
149, 2018-07-10 08:18:34,-6852,1853,1860,2035,340,3029,-47.91,9.12,7337.786655
150, 2018-07-10 08:18:34,-7090,1685,1653,993,-1089,2270,-47.88,9.21,7472.598879
151, 2018-07-10 08:18:34,-7551,1453,1393,-340,-1502,2158,-47.8,9.21,7814.682271
152, 2018-07-10 08:18:34,-7779,1569,1161,-1250,-727,1909,-47.78,9.15,8020.132356
153, 2018-07-10 08:18:34,-7654,2432,777,-1594,1020,1247,-47.91,9.03,8068.585316
154, 2018-07-10 08:18:34,-7200,2384,1159,-1536,1781,742,-48.09,8.91,7672.466162
155, 2018-07-10 08:18:34,-7173,3124,801,-565,-602,644,-48.16,8.85,7864.661849
156, 2018-07-10 08:18:34,-7885,3429,1219,92,-2636,1242,-48.04,8.9,8684.309241
157, 2018-07-10 08:18:34,-8192,3017,1257,510,-3092,1172,-47.94,8.95,8819.932086
