No, waktu, accx, accY, accZ, gyroX, gyroY, gyroZ, roll, pitch,Akselerasi
1, 2018-07-09 08:51:55,-7225,1738,1273,-2206,-744,-1898,-59.06,-30.34,7539.349972
2, 2018-07-09 08:51:55,-8192,1675,773,-1393,-524,-1783,-59.07,-30.35,8397.143443
3, 2018-07-09 08:51:55,-8192,1094,930,-704,352,-1396,-59.15,-30.33,8316.886437
4, 2018-07-09 08:51:55,-7565,964,651,138,-814,-1111,-59.13,-30.25,7653.908936
5, 2018-07-09 08:51:55,-7673,1391,514,-509,-1532,-1424,-59.06,-30.19,7814.985988
6, 2018-07-09 08:51:55,-7637,1482,937,-1296,-1786,-1840,-58.97,-30.19,7835.691546
7, 2018-07-09 08:51:55,-7815,1321,619,-541,-1704,-1739,-58.89,-30.15,7949.995409
8, 2018-07-09 08:51:55,-8057,1036,387,261,-2525,-1303,-58.79,-30.07,8132.546588
9, 2018-07-09 08:51:55,-7921,1193,559,712,-2258,-1053,-58.68,-29.95,8029.817619
10, 2018-07-09 08:51:55,-7776,1402,526,942,-2595,-1172,-58.56,-29.82,7918.867091
11, 2018-07-09 08:51:55,-7620,1682,317,1609,-2565,-1307,-58.42,-29.65,7809.866388
12, 2018-07-09 08:51:55,-7769,1672,97,2494,-2739,-1241,-58.28,-29.43,7947.474693
13, 2018-07-09 08:51:55,-7930,1188,125,2839,-2554,-984,-58.15,-29.18,8019.468125
14, 2018-07-09 08:51:55,-8077,521,61,2703,-1444,-543,-58.06,-28.83,8094.015752
15, 2018-07-09 08:51:55,-8192,450,239,2136,-2331,-316,-57.98,-28.62,8207.830712
16, 2018-07-09 08:51:55,-8192,1584,-1044,2062,-577,-325,-57.98,-28.43,8408.796347
17, 2018-07-09 08:51:55,-8192,1549,-737,1904,1401,-112,-58.11,-28.23,8369.67347
18, 2018-07-09 08:51:55,-7573,1751,-1453,4082,3860,916,-58.43,-27.81,7907.435678
19, 2018-07-09 08:51:55,-6948,2674,-699,5111,5422,1504,-58.76,-27.41,7477.538432
20, 2018-07-09 08:51:55,-7998,1677,1391,4517,-59,2698,-58.85,-27.04,8289.464036
21, 2018-07-09 08:51:55,-8192,-926,3342,2146,-6816,-541,-58.52,-26.83,8895.802606
22, 2018-07-09 08:51:55,-8192,423,624,957,2193,-5265,-58.58,-26.69,8226.613459
23, 2018-07-09 08:51:55,-6453,880,1227,1302,4830,-3431,-58.88,-26.56,6627.302468
24, 2018-07-09 08:51:55,-6116,1796,1077,3705,3532,-68,-59.09,-26.29,6464.595966
25, 2018-07-09 08:51:55,-6607,2173,2695,8347,-3087,3304,-58.99,-25.53,7459.048398
26, 2018-07-09 08:51:55,-8192,1854,671,5818,-1248,1731,-58.8,-24.74,8425.937396
27, 2018-07-09 08:51:55,-8160,703,546,1298,3341,-635,-59.12,-24.45,8208.405753
28, 2018-07-09 08:51:56,-8192,1547,-138,800,-27,2531,-59.3,-24.26,8337.932418
29, 2018-07-09 08:51:56,-8192,2064,-146,-333,272,3875,-59.37,-24.18,8449.276655
30, 2018-07-09 08:51:56,-8192,940,190,-705,2460,3901,-59.63,-24.14,8247.943016
31, 2018-07-09 08:51:56,-8192,760,-680,-1025,3347,3408,-59.88,-24.14,8255.232522
32, 2018-07-09 08:51:56,-7625,1097,-644,-3272,3511,2590,-60.13,-24.25,7730.37968
33, 2018-07-09 08:51:56,-6527,1715,-577,-2942,1679,2437,-60.24,-24.36,6773.173776
34, 2018-07-09 08:51:56,-6911,1589,-152,-4631,1327,1738,-60.31,-24.55,7092.950444
35, 2018-07-09 08:51:56,-7083,1650,-112,-5803,2332,679,-60.44,-24.82,7273.508988
36, 2018-07-09 08:51:56,-5783,2170,452,-5479,1031,462,-60.59,-25.23,6193.245756
37, 2018-07-09 08:51:56,-6518,3024,-34,-4768,-1152,1224,-60.51,-25.43,7185.405764
38, 2018-07-09 08:51:56,-8192,2867,-930,-4925,1355,-167,-60.59,-25.63,8728.886126
39, 2018-07-09 08:51:56,-7646,3158,-1021,-5129,5557,-2095,-60.91,-25.86,8335.269702
40, 2018-07-09 08:51:56,-5763,3080,-1133,-3966,5194,-1828,-61.21,-26.01,6631.912092
41, 2018-07-09 08:51:56,-5806,3335,-1468,-1710,6008,-2337,-61.54,-26.03,6854.698024
42, 2018-07-09 08:51:56,-8192,3367,-3290,-2229,3294,-2709,-61.83,-26.07,9448.261904
43, 2018-07-09 08:51:56,-8192,2116,-1336,-2819,-771,-1390,-61.87,-26.14,8565.699971
44, 2018-07-09 08:51:56,-8192,976,1937,-2063,-4989,-1221,-61.71,-26.23,8474.279261
45, 2018-07-09 08:51:56,-8192,4713,-1218,-5310,-2723,-618,-61.49,-26.43,9529.153005
46, 2018-07-09 08:51:56,-8192,3843,-3104,-2509,3359,1018,-61.72,-26.5,9566.20766
47, 2018-07-09 08:51:56,-8192,4327,-819,475,1696,1545,-61.94,-26.39,9300.674922
48, 2018-07-09 08:51:56,-8192,4927,2591,2130,-6107,708,-61.74,-26.12,9904.416893
49, 2018-07-09 08:51:56,-8192,3375,2533,1067,-3169,-2991,-61.48,-25.97,9214.964894
50, 2018-07-09 08:51:56,-8192,696,1413,1525,-2029,-3378,-61.43,-25.81,8342.053045
51, 2018-07-09 08:51:56,-7811,-15,1573,278,-36,-2614,-61.36,-25.68,7967.827496
52, 2018-07-09 08:51:56,-5824,2194,524,-5,-2716,1973,-60.82,-25.57,6245.573472
53, 2018-07-09 08:51:56,-7197,304,-549,218,-171,941,-60.71,-25.44,7224.307995
54, 2018-07-09 08:51:56,-6984,1435,-503,521,-1031,740,-60.67,-25.31,7147.621283
55, 2018-07-09 08:51:56,-7012,3009,-222,174,-1779,1320,-60.57,-25.2,7633.577733
56, 2018-07-09 08:51:56,-7438,2356,-163,-123,-1729,1646,-60.47,-25.12,7803.918823
57, 2018-07-09 08:51:56,-7695,944,-546,289,-1960,1912,-60.37,-25.05,7771.890182
58, 2018-07-09 08:51:56,-7616,1288,-313,1093,-1968,2324,-60.26,-24.92,7730.483103
59, 2018-07-09 08:51:56,-8177,2225,-419,-115,-2478,1846,-60.16,-24.82,8484.663517
60, 2018-07-09 08:51:56,-8192,2125,-712,-1035,-1812,1239,-60.09,-24.8,8493.022607
61, 2018-07-09 08:51:56,-8192,1845,-1828,-1474,291,684,-60.15,-24.82,8593.862519
62, 2018-07-09 08:51:56,-8192,4513,1415,4269,-5819,-343,-59.94,-24.42,9459.294794
63, 2018-07-09 08:51:56,-8192,8192,2151,3600,-5035,-142,-59.64,-23.99,11783.23084
64, 2018-07-09 08:51:56,-8192,-1561,177,4181,6363,-9,-60.16,-23.46,8341.27772
65, 2018-07-09 08:51:56,-7817,-619,3691,1120,-2437,764,-60.2,-23.32,8666.725506
66, 2018-07-09 08:51:56,-5925,1046,2837,-1734,-347,-2189,-60.11,-23.34,6651.940318
67, 2018-07-09 08:51:57,-6889,2769,1406,-3572,-2658,-2700,-59.97,-23.46,7556.620806
68, 2018-07-09 08:51:57,-8192,2719,542,-3858,-403,-2629,-59.95,-23.61,8648.444311
69, 2018-07-09 08:51:57,-8192,1501,-581,-941,3962,-2340,-60.19,-23.64,8348.618209
70, 2018-07-09 08:51:57,-8192,641,-377,1030,6528,-2084,-60.85,-23.47,8225.683801
71, 2018-07-09 08:51:57,-6942,446,882,-1545,4130,-3293,-61.15,-23.47,7012.004278
72, 2018-07-09 08:51:57,-6270,842,235,-2646,2466,-3713,-61.29,-23.58,6330.646807
73, 2018-07-09 08:51:57,-6410,847,351,-2711,1878,-4133,-61.39,-23.67,6475.23822
74, 2018-07-09 08:51:57,-6258,287,539,-3551,3271,-4243,-61.54,-23.83,6287.722481
75, 2018-07-09 08:51:57,-5992,1014,1288,-3718,1951,-4376,-61.67,-23.99,6212.181903
76, 2018-07-09 08:51:57,-6765,1990,67,-3368,-497,-4029,-61.65,-24.14,7051.936897
77, 2018-07-09 08:51:57,-7988,2182,-1203,-1830,-424,-3902,-61.64,-24.2,8367.584896
78, 2018-07-09 08:51:57,-7985,1735,-70,-523,1450,-3478,-61.74,-24.16,8171.618567
79, 2018-07-09 08:51:57,-7966,713,-86,206,2330,-3460,-61.9,-24.1,7998.307383
80, 2018-07-09 08:51:57,-8192,168,-19,617,-359,-2704,-62.03,-23.94,8193.744504
81, 2018-07-09 08:51:57,-8192,81,-342,-193,112,-3279,-62.08,-23.91,8199.535902
82, 2018-07-09 08:51:57,-8192,541,-641,-312,-563,-3051,-62.11,-23.86,8234.830053
83, 2018-07-09 08:51:57,-8192,7,-1066,-1148,588,-2104,-62.18,-23.88,8261.069483
84, 2018-07-09 08:51:57,-8192,-166,-232,-1049,2436,-1240,-62.38,-23.89,8196.965536
85, 2018-07-09 08:51:57,-8114,-479,1650,-1702,-3335,687,-62.22,-23.95,8293.909633
86, 2018-07-09 08:51:57,-8192,1342,250,-555,-9718,279,-61.71,-23.95,8304.958037
87, 2018-07-09 08:51:57,-8192,1385,-646,410,4342,-190,-61.84,-23.88,8333.330967
88, 2018-07-09 08:51:57,-5441,1033,2811,-83,5255,1925,-62.12,-23.82,6210.739972
89, 2018-07-09 08:51:57,-6922,-304,992,239,752,3971,-62.28,-23.64,6999.325968
90, 2018-07-09 08:51:57,-6904,746,1704,655,737,3151,-62.32,-23.54,7150.199158
91, 2018-07-09 08:51:57,-6668,1585,1136,592,1637,2343,-62.39,-23.44,6947.297676
92, 2018-07-09 08:51:57,-7764,1450,-553,704,3541,2794,-62.68,-23.27,7917.575702
93, 2018-07-09 08:51:57,-6613,1368,176,256,3534,3968,-62.98,-23.14,6755.306729
94, 2018-07-09 08:51:57,-5515,2041,-196,-106,2646,3362,-63.11,-23.06,5883.818658
95, 2018-07-09 08:51:57,-5953,1960,-341,817,-476,3624,-63.1,-22.88,6276.630465
96, 2018-07-09 08:51:57,-6398,238,95,-207,-1251,4194,-63,-22.83,6403.129938
97, 2018-07-09 08:51:57,-7360,-116,-667,-1143,-209,3856,-62.94,-22.84,7391.071979
98, 2018-07-09 08:51:57,-7293,1425,-1266,-2404,1696,2626,-63.03,-22.95,7537.985805
99, 2018-07-09 08:51:57,-6436,2153,127,-2174,1858,2294,-63.15,-23.01,6787.756183
100, 2018-07-09 08:51:57,-6784,1798,-930,-2165,481,1375,-63.17,-23.08,7079.573433
101, 2018-07-09 08:51:57,-6870,2452,-1686,-764,2230,187,-63.27,-23.07,7486.775007
102, 2018-07-09 08:51:57,-6949,2805,-2054,50,3005,-946,-63.44,-22.98,7770.170011
103, 2018-07-09 08:51:57,-7437,2575,-1596,-377,-2289,-1109,-63.37,-22.91,8030.367987
104, 2018-07-09 08:51:57,-7719,2592,-1628,-189,-1428,-839,-63.26,-22.85,8303.722599
105, 2018-07-09 08:51:57,-8192,2179,-1134,1227,-2347,1596,-63.19,-22.65,8552.359967
106, 2018-07-09 08:51:58,-8192,1781,836,1456,-5451,1240,-62.98,-22.5,8424.94635
107, 2018-07-09 08:51:58,-8192,4399,1403,-938,-11675,-542,-62.36,-22.38,9403.641529
108, 2018-07-09 08:51:58,-8192,4108,-1534,-1199,-1388,166,-62.18,-22.38,9291.807359
109, 2018-07-09 08:51:58,-8192,1698,1669,2177,2536,1483,-62.65,-22.09,8530.980542
110, 2018-07-09 08:51:58,-8192,2865,2505,538,-1473,-213,-62.61,-21.94,9032.835325
111, 2018-07-09 08:51:58,-7042,1976,1996,-846,-1177,-2931,-62.56,-21.9,7581.448147
112, 2018-07-09 08:51:58,-6869,937,589,-1497,-2366,-3906,-62.4,-21.93,6957.589453
113, 2018-07-09 08:51:58,-7529,576,-176,-1633,-119,-4030,-62.37,-21.98,7553.0519
114, 2018-07-09 08:51:58,-7809,703,-817,-203,3206,-3451,-62.54,-21.96,7883.031079
115, 2018-07-09 08:51:58,-8038,411,-144,1337,4237,-2773,-62.84,-21.84,8049.788879
116, 2018-07-09 08:51:58,-7350,832,-157,958,2888,-2544,-63.03,-21.72,7398.606153
117, 2018-07-09 08:51:58,-6500,731,-109,-984,1898,-3181,-63.13,-21.71,6541.883674
118, 2018-07-09 08:51:58,-5758,376,448,-2373,2040,-3757,-63.23,-21.78,5787.62853
119, 2018-07-09 08:51:58,-5505,-408,478,-3243,1273,-3820,-63.28,-21.93,5540.755634
120, 2018-07-09 08:51:58,-5424,371,409,-3487,-676,-3040,-63.22,-22.09,5452.036133
121, 2018-07-09 08:51:58,-5324,1892,674,-3758,-2412,-1798,-63.05,-22.26,5690.247446
122, 2018-07-09 08:51:58,-5881,2750,-109,-2609,-2648,-1771,-62.84,-22.35,6493.114969
123, 2018-07-09 08:51:58,-5957,1140,-297,-2348,-1927,-2721,-62.69,-22.43,6072.368401
124, 2018-07-09 08:51:58,-5802,367,-84,-2377,-2092,-2054,-62.53,-22.53,5814.202353
125, 2018-07-09 08:51:58,-8192,1192,-833,-1104,-3704,-911,-62.34,-22.55,8320.073137
126, 2018-07-09 08:51:58,-8192,584,-1310,-558,209,-1083,-62.35,-22.54,8316.611089
127, 2018-07-09 08:51:58,-8192,324,15,-981,2256,-1724,-62.52,-22.54,8198.418445
128, 2018-07-09 08:51:58,-7636,1677,-956,238,4759,-1099,-62.82,-22.49,7876.21489
129, 2018-07-09 08:51:58,-6980,419,-809,1220,4594,-637,-63.09,-22.36,7039.207484
130, 2018-07-09 08:51:58,-8099,-2142,-545,327,2843,-2061,-63.32,-22.31,8395.176591
131, 2018-07-09 08:51:58,-8192,-1642,-2311,-1659,3434,-2562,-63.6,-22.38,8668.664776
132, 2018-07-09 08:51:58,-8192,1316,-57,-1857,-6805,-1519,-63.38,-22.43,8297.226585
133, 2018-07-09 08:51:58,-8192,1281,157,-3177,-20312,1219,-62.29,-22.58,8293.037682
134, 2018-07-09 08:51:58,-8192,2843,-473,881,165,-3306,-61.97,-22.54,8684.194954
135, 2018-07-09 08:51:58,-8192,1386,1561,-134,3050,-3092,-62.24,-22.45,8453.790925
136, 2018-07-09 08:51:58,-8192,-166,1635,1378,3192,956,-62.52,-22.34,8355.216634
137, 2018-07-09 08:51:58,-6475,-622,2236,1892,-862,2980,-62.51,-22.19,6878.386802
138, 2018-07-09 08:51:58,-5585,-75,2181,1349,-3941,1828,-62.24,-22.06,5996.21639
139, 2018-07-09 08:51:58,-6729,1146,467,1646,-4424,2047,-61.94,-21.91,6841.845219
140, 2018-07-09 08:51:58,-8192,2361,-1213,2305,200,2572,-61.91,-21.7,8611.30385
141, 2018-07-09 08:51:58,-8192,1976,-860,3463,4786,767,-62.21,-21.44,8470.716617
142, 2018-07-09 08:51:58,-6703,940,-58,4626,6686,1287,-62.8,-20.92,6768.838379
143, 2018-07-09 08:51:58,-5253,1271,-515,2709,6572,1959,-63.17,-20.68,5429.05839
144, 2018-07-09 08:51:58,-4862,1540,80,2873,1737,2945,-63.3,-20.45,5100.690541
145, 2018-07-09 08:51:58,-5346,827,401,2431,-1682,4277,-63.18,-20.24,5424.430477
146, 2018-07-09 08:51:58,-5845,-78,994,1005,-2610,4846,-62.99,-20.11,5929.430411
147, 2018-07-09 08:51:58,-6247,285,822,-286,964,4678,-62.93,-20.07,6307.290861
148, 2018-07-09 08:51:58,-5940,986,212,-2307,2363,3707,-63.08,-20.15,6025.009544
149, 2018-07-09 08:51:59,-5754,1380,577,-2253,2505,2579,-63.2,-20.23,5945.237169
150, 2018-07-09 08:51:59,-6839,2329,-759,-2017,2206,1281,-63.31,-20.29,7264.450633
151, 2018-07-09 08:51:59,-7793,2724,-814,-2154,2096,433,-63.47,-20.34,8295.397579
152, 2018-07-09 08:51:59,-8192,2175,-376,-1604,-238,1051,-63.52,-20.37,8484.153759
153, 2018-07-09 08:51:59,-8192,1948,-755,-1680,123,1402,-63.56,-20.4,8454.20564
154, 2018-07-09 08:51:59,-8192,2029,-1480,-1815,1668,1463,-63.71,-20.44,8568.319847
155, 2018-07-09 08:51:59,-8165,2048,-947,-1240,447,1786,-63.8,-20.45,8471.029335
156, 2018-07-09 08:51:59,-8192,734,-820,-1895,-1330,24,-63.81,-20.51,8265.592538
157, 2018-07-09 08:51:59,-8192,3791,2497,-283,-8726,-1410,-63.45,-20.45,9365.658226
158, 2018-07-09 08:51:59,-8192,6208,621,-3449,-3768,-1370,-63.15,-20.53,10297.26998
159, 2018-07-09 08:51:59,-8192,-1680,-1192,2428,6694,-589,-63.54,-20.44,8447.018882
160, 2018-07-09 08:51:59,-7686,677,2257,679,-57,-1555,-63.7,-20.28,8039.090371
161, 2018-07-09 08:51:59,-5780,1667,2885,-3946,-5163,-4232,-63.37,-20.41,6671.620043
162, 2018-07-09 08:51:59,-6731,1661,2312,-3017,-3895,-4958,-63.12,-20.53,7308.257385
163, 2018-07-09 08:51:59,-8192,1528,-953,-1531,-927,-3082,-63.06,-20.6,8387.601385
164, 2018-07-09 08:51:59,-8192,1371,-92,1658,1153,-1315,-63.16,-20.46,8306.441416
165, 2018-07-09 08:51:59,-7782,987,-70,2929,2277,-2337,-63.33,-20.23,7844.653785
166, 2018-07-09 08:51:59,-7164,748,94,864,465,-3803,-63.38,-20.1,7203.557177
167, 2018-07-09 08:51:59,-6614,-185,734,-426,-159,-4344,-63.37,-20.06,6657.174851
168, 2018-07-09 08:51:59,-6043,246,772,-845,-1125,-3769,-63.27,-20.06,6097.077087
169, 2018-07-09 08:51:59,-5965,792,838,-1557,-1238,-3632,-63.17,-20.1,6075.420397
170, 2018-07-09 08:51:59,-6055,1731,-440,-829,-1173,-3608,-63.06,-20.1,6312.922144
171, 2018-07-09 08:51:59,-5821,1038,33,327,-424,-3446,-62.96,-20,5912.915863
172, 2018-07-09 08:51:59,-6196,695,-327,597,-553,-2816,-62.89,-19.88,6243.426143
173, 2018-07-09 08:51:59,-6514,644,-867,2150,544,-2074,-62.88,-19.72,6602.925185
174, 2018-07-09 08:51:59,-7476,-442,769,179,-2199,-1943,-62.79,-19.62,7528.432838
175, 2018-07-09 08:51:59,-8192,-563,369,-2696,-2370,-3002,-62.67,-19.74,8219.610331
176, 2018-07-09 08:51:59,-8192,-535,-1399,-1948,871,-3081,-62.73,-19.83,8327.802231
177, 2018-07-09 08:51:59,-8192,-1053,-810,-2073,4787,-2901,-63.05,-19.92,8299.022412
178, 2018-07-09 08:51:59,-8192,580,-1236,-2141,2267,-2219,-63.28,-20.02,8304.996087
179, 2018-07-09 08:51:59,-8192,1661,197,-1317,-2668,-1620,-63.25,-19.99,8361.016326
180, 2018-07-09 08:51:59,-8192,717,3639,-4669,-13957,1590,-62.63,-20.14,8992.512107
181, 2018-07-09 08:51:59,-8192,-2010,-106,1044,-4973,-911,-62.2,-20.23,8435.650538
182, 2018-07-09 08:51:59,-8192,2221,2998,-3465,-606,902,-62.23,-20.31,9001.650349
183, 2018-07-09 08:51:59,-7721,537,2636,1528,-381,3022,-62.23,-20.26,8176.228103
184, 2018-07-09 08:51:59,-7118,494,1617,2732,-2134,5685,-62.12,-20.04,7316.054196
185, 2018-07-09 08:51:59,-6813,-361,2560,2069,-600,5048,-62.04,-19.86,7287.035749
186, 2018-07-09 08:51:59,-6671,-523,2817,205,-591,4682,-61.99,-19.79,7260.251993
187, 2018-07-09 08:51:59,-7458,1342,864,-1547,2084,5225,-62.05,-19.82,7626.875114
188, 2018-07-09 08:51:59,-8192,1145,802,-2770,4900,5329,-62.38,-19.91,8310.420747
189, 2018-07-09 08:51:59,-7058,424,286,-3248,6991,4453,-62.79,-20.06,7076.505917
