No, waktu, accx, accY, accZ, gyroX, gyroY, gyroZ, roll, pitch,Akselerasi
1, 2018-07-09 07:40:33,-8192,4224,787,-5638,-813,-2340,-54.68,6.69,9250.427504
2, 2018-07-09 07:40:33,-8192,2241,-401,-2038,3285,-1363,-54.89,6.54,8502.455292
3, 2018-07-09 07:40:33,-7383,-650,496,498,6296,-2263,-55.55,6.55,7428.136038
4, 2018-07-09 07:40:33,-6125,-401,1144,-1393,3535,-3120,-55.79,6.47,6243.809895
5, 2018-07-09 07:40:33,-5507,643,2067,-3779,596,-4208,-55.84,6.26,5917.177283
6, 2018-07-09 07:40:33,-6127,1095,1747,-4991,-2366,-4729,-55.71,5.97,6464.608495
7, 2018-07-09 07:40:33,-7269,923,187,-4584,-1792,-4532,-55.59,5.68,7329.751633
8, 2018-07-09 07:40:33,-7270,406,-48,-2465,1185,-4446,-55.67,5.4,7281.486112
9, 2018-07-09 07:40:33,-6335,884,379,-1170,1606,-5115,-55.81,5.27,6407.59877
10, 2018-07-09 07:40:33,-6414,1068,748,-1040,1654,-4817,-55.94,5.18,6545.190906
11, 2018-07-09 07:40:33,-7054,559,860,-1390,819,-3732,-56,5.1,7128.183289
12, 2018-07-09 07:40:33,-7372,-799,947,-2084,-731,-2938,-56,4.91,7475.399254
13, 2018-07-09 07:40:33,-7457,-766,1149,-2143,-2433,-2773,-55.9,4.76,7583.78573
14, 2018-07-09 07:40:33,-8192,-657,924,-1958,-4247,-2958,-55.7,4.62,8270.083978
15, 2018-07-09 07:40:33,-8192,-389,788,-2503,-2584,-3231,-55.59,4.46,8239.000485
16, 2018-07-09 07:40:33,-8192,-443,386,-3750,-957,-3071,-55.58,4.23,8213.04505
17, 2018-07-09 07:40:33,-8192,1118,100,-2694,578,-1318,-55.69,3.94,8268.542072
18, 2018-07-09 07:40:33,-8192,976,634,1047,2465,2276,-55.96,3.95,8274.261055
19, 2018-07-09 07:40:33,-8192,-1359,1893,26,-268,589,-56.08,3.96,8516.994423
20, 2018-07-09 07:40:33,-8192,-2633,1197,-1956,-2640,-4292,-55.96,3.84,8687.598172
21, 2018-07-09 07:40:33,-8192,487,915,-2477,8734,1490,-56.68,3.49,8257.315423
22, 2018-07-09 07:40:33,-5185,1626,1563,4385,2682,4870,-57.06,3.72,5654.296596
23, 2018-07-09 07:40:33,-4601,1226,3643,8277,814,2718,-57.12,4.44,5995.308666
24, 2018-07-09 07:40:33,-6960,613,3074,5674,-3217,2938,-56.92,5.05,7633.272234
25, 2018-07-09 07:40:34,-8192,193,-479,5792,457,1823,-56.86,5.53,8208.261326
26, 2018-07-09 07:40:34,-7548,-620,1013,5777,3876,1431,-57.29,6.07,7640.868602
27, 2018-07-09 07:40:34,-6674,-993,759,3420,1441,1828,-57.4,6.28,6790.022533
28, 2018-07-09 07:40:34,-6686,-922,680,2094,-619,2101,-57.38,6.45,6783.441604
29, 2018-07-09 07:40:34,-6186,729,780,1343,-1143,1847,-57.26,6.58,6277.454659
30, 2018-07-09 07:40:34,-5383,1674,646,2817,-1251,2827,-57.16,6.73,5674.17668
31, 2018-07-09 07:40:34,-5334,1257,1288,3028,-2445,4095,-57,6.93,5629.43594
32, 2018-07-09 07:40:34,-6757,-484,1664,239,-3937,3573,-56.76,6.98,6975.686418
33, 2018-07-09 07:40:34,-8167,-1478,841,-2445,-1919,1408,-56.64,6.82,8342.161231
34, 2018-07-09 07:40:34,-8192,711,1276,-2548,1499,-591,-56.82,6.56,8321.21151
35, 2018-07-09 07:40:34,-8192,2262,1147,-2270,1069,543,-56.96,6.42,8575.611757
36, 2018-07-09 07:40:34,-7688,2721,-187,-486,2055,2190,-57.1,6.39,8157.460021
37, 2018-07-09 07:40:34,-7120,1829,642,950,229,2888,-57.23,6.5,7379.146631
38, 2018-07-09 07:40:34,-7999,125,118,640,-1431,1756,-57.14,6.56,8000.84683
39, 2018-07-09 07:40:34,-6906,-929,434,310,-460,-652,-57.15,6.57,6981.707026
40, 2018-07-09 07:40:34,-6459,-11,1044,-2977,-6391,-2177,-56.85,6.43,6542.838681
41, 2018-07-09 07:40:34,-8192,1479,999,-7321,-14262,-3519,-56.1,6.03,8384.169965
42, 2018-07-09 07:40:34,-8192,4751,4055,-6944,-12324,-1660,-55.37,5.66,10301.64501
43, 2018-07-09 07:40:34,-8192,4827,761,1899,-2959,2834,-55.11,5.63,9538.758515
44, 2018-07-09 07:40:34,-8192,-468,2031,8321,7313,3731,-55.52,6.12,8452.978706
45, 2018-07-09 07:40:34,-7577,-2453,2228,4413,10783,-1323,-56.21,6.41,8269.952962
46, 2018-07-09 07:40:34,-4602,-2621,3134,-1346,6041,-3041,-56.62,6.35,6153.860658
47, 2018-07-09 07:40:34,-4862,-767,4255,-6122,-1679,-2268,-56.56,5.99,6506.332146
48, 2018-07-09 07:40:34,-7895,690,2904,-7159,-3565,-1866,-56.34,5.55,8440.399339
49, 2018-07-09 07:40:34,-8192,1806,1589,-5168,2238,-2924,-56.46,5.21,8537.881529
50, 2018-07-09 07:40:34,-8065,2118,1482,-4238,4409,-2296,-56.78,4.97,8469.148304
51, 2018-07-09 07:40:34,-6547,1255,988,-126,4282,-330,-57.19,4.85,6739.019068
52, 2018-07-09 07:40:35,-6680,766,1739,825,760,-1863,-57.34,4.92,6945.018143
53, 2018-07-09 07:40:35,-7097,1201,1214,1174,89,-3309,-57.35,4.99,7299.562042
54, 2018-07-09 07:40:35,-6985,1088,1028,2541,1211,-3362,-57.42,5.14,7143.581245
55, 2018-07-09 07:40:35,-7130,-444,1118,2364,-50,-2549,-57.45,5.36,7230.764828
56, 2018-07-09 07:40:35,-6385,-466,96,3298,2230,-3144,-57.57,5.6,6402.70232
57, 2018-07-09 07:40:35,-5034,81,1305,2625,2496,-2864,-57.78,5.85,5201.032782
58, 2018-07-09 07:40:35,-5279,-475,1385,393,-2085,-2739,-57.66,5.92,5478.292708
59, 2018-07-09 07:40:35,-6540,-1016,229,428,-1491,-2117,-57.44,5.92,6622.408701
60, 2018-07-09 07:40:35,-7071,-1456,1045,-324,-561,-1059,-57.4,5.88,7294.587171
61, 2018-07-09 07:40:35,-6873,-1538,825,-1196,-1308,-53,-57.33,5.78,7091.13517
62, 2018-07-09 07:40:35,-6702,-878,362,-1585,-1635,1604,-57.23,5.66,6768.953538
63, 2018-07-09 07:40:35,-7771,431,-89,-1546,-2146,2368,-57.05,5.49,7783.451869
64, 2018-07-09 07:40:35,-7988,1313,334,195,744,2555,-57.12,5.45,8102.078067
65, 2018-07-09 07:40:35,-8188,1758,241,2224,275,2703,-57.24,5.64,8378.065946
66, 2018-07-09 07:40:35,-8192,-11,877,831,-1956,729,-57.23,5.77,8238.817512
67, 2018-07-09 07:40:35,-8192,-772,173,-498,-2725,-1088,-57.13,5.73,8230.114033
68, 2018-07-09 07:40:35,-8192,-323,318,-1177,574,-972,-57.19,5.62,8204.530273
69, 2018-07-09 07:40:35,-8192,-2627,1753,-5441,-2636,-400,-57.14,5.27,8779.692591
70, 2018-07-09 07:40:35,-8192,-1899,1980,-7807,-5977,-3347,-56.87,4.76,8639.181964
71, 2018-07-09 07:40:35,-8192,2160,1485,-6037,2596,-2021,-56.96,4.36,8601.144633
72, 2018-07-09 07:40:35,-8192,3048,2168,-281,2272,4471,-57.43,4.24,9005.520085
73, 2018-07-09 07:40:35,-7875,2374,1795,3649,-1391,5066,-57.43,4.44,8418.641577
74, 2018-07-09 07:40:35,-6388,594,2906,7717,-121,2695,-57.35,5.09,7043.026054
75, 2018-07-09 07:40:35,-6131,-692,4535,3307,616,1319,-57.39,5.52,7657.300438
76, 2018-07-09 07:40:35,-7193,-579,2089,334,-1993,954,-57.3,5.55,7512.550233
77, 2018-07-09 07:40:35,-7676,211,-115,1499,464,1378,-57.26,5.62,7679.760543
78, 2018-07-09 07:40:36,-6502,508,1131,2462,1415,1707,-57.42,5.83,6619.156215
79, 2018-07-09 07:40:36,-6618,151,1773,1012,-413,2161,-57.41,5.96,6853.04706
80, 2018-07-09 07:40:36,-7078,477,1234,-320,-881,1833,-57.36,5.95,7200.581157
81, 2018-07-09 07:40:36,-6953,1212,600,-103,665,1690,-57.37,5.94,7083.300996
82, 2018-07-09 07:40:36,-6344,1392,828,1303,3361,2916,-57.54,6.01,6547.486846
83, 2018-07-09 07:40:36,-5626,1053,1141,2480,3657,4162,-57.74,6.15,5836.314419
84, 2018-07-09 07:40:36,-5177,264,1574,1075,3237,3987,-58.01,6.31,5417.42568
85, 2018-07-09 07:40:36,-5115,605,1149,-1264,962,1578,-58.1,6.23,5277.257905
86, 2018-07-09 07:40:36,-6802,1427,845,-2978,-2526,988,-57.94,6.01,7001.254031
87, 2018-07-09 07:40:36,-8192,1496,-362,-2971,-2207,967,-57.83,5.83,8335.341865
88, 2018-07-09 07:40:36,-8192,1441,-136,-1654,1064,686,-57.91,5.72,8318.884601
89, 2018-07-09 07:40:36,-7910,1166,1083,-1935,1173,310,-58.13,5.58,8068.490875
90, 2018-07-09 07:40:36,-7665,762,122,-3249,856,501,-58.24,5.32,7703.749282
91, 2018-07-09 07:40:36,-7906,281,474,-4622,-422,1278,-58.3,4.93,7925.179683
92, 2018-07-09 07:40:36,-8192,2315,657,-5729,-3754,315,-58.13,4.47,8538.13434
93, 2018-07-09 07:40:36,-8192,5109,1843,-4402,-3181,1188,-58,4.22,9828.906043
94, 2018-07-09 07:40:36,-8192,6026,2161,-3351,-6329,3489,-57.72,4.06,10396.70433
95, 2018-07-09 07:40:36,-8192,1132,878,5739,4503,2330,-57.86,4.46,8316.319619
96, 2018-07-09 07:40:36,-8192,-972,3035,2870,5622,-2176,-58.29,4.68,8790.04397
97, 2018-07-09 07:40:36,-7471,-1842,3038,-4602,2282,-3413,-58.51,4.46,8272.741323
98, 2018-07-09 07:40:36,-5830,-1178,3035,-8418,1457,-1593,-58.58,3.95,6677.410351
99, 2018-07-09 07:40:36,-6739,843,3639,-6500,-26,-221,-58.61,3.27,7705.004283
100, 2018-07-09 07:40:36,-8192,2246,1859,-4130,-408,-858,-58.62,3.01,8695.35859
101, 2018-07-09 07:40:36,-8192,3096,756,-3280,2731,-1822,-58.8,2.84,8790.086234
102, 2018-07-09 07:40:36,-7897,2449,795,-1507,5571,-2279,-59.16,2.75,8306.156452
103, 2018-07-09 07:40:36,-6023,1569,575,1872,5160,-2471,-59.65,2.85,6250.513179
104, 2018-07-09 07:40:36,-4604,1643,1397,4690,3031,-2648,-59.94,3.27,5084.080448
105, 2018-07-09 07:40:37,-4670,1034,2004,3829,-836,-2760,-59.89,3.53,5185.949479
106, 2018-07-09 07:40:37,-5528,-409,1230,2806,-2733,-3552,-59.69,3.7,5677.936685
107, 2018-07-09 07:40:37,-5711,-1541,882,1221,-519,-5237,-59.55,3.83,5980.645952
108, 2018-07-09 07:40:37,-5473,-845,1101,-596,-1104,-5456,-59.46,3.79,5646.2337
109, 2018-07-09 07:40:37,-5910,234,941,-1471,-2257,-4750,-59.31,3.7,5989.018033
110, 2018-07-09 07:40:37,-6760,903,406,-789,-2469,-3053,-59.14,3.64,6832.118632
111, 2018-07-09 07:40:37,-7809,905,164,481,-1904,-1401,-59.04,3.66,7862.976663
112, 2018-07-09 07:40:37,-8192,705,-245,2343,-1105,-16,-58.98,3.83,8225.92937
113, 2018-07-09 07:40:37,-7715,350,134,2232,1073,325,-59.06,3.98,7724.097423
114, 2018-07-09 07:40:37,-6816,-324,1013,-246,297,105,-59.14,4.01,6898.478166
115, 2018-07-09 07:40:37,-7050,-195,883,-1942,-1325,-194,-59.07,3.9,7107.757312
116, 2018-07-09 07:40:37,-7894,-123,281,-2124,-2486,-531,-58.95,3.76,7899.957342
117, 2018-07-09 07:40:37,-8192,-369,102,-1965,-1459,-602,-58.86,3.55,8200.940739
118, 2018-07-09 07:40:37,-8192,679,90,-935,403,-441,-58.93,3.42,8220.584225
119, 2018-07-09 07:40:37,-8182,1721,658,322,2004,-322,-59.2,3.45,8386.890306
120, 2018-07-09 07:40:37,-8192,140,2976,-1316,-1074,-331,-59.3,3.45,8716.93983
121, 2018-07-09 07:40:37,-8192,-675,3562,-2676,-9709,-4343,-58.88,3.28,8958.366648
122, 2018-07-09 07:40:37,-8192,1510,-319,-1071,-4303,-3034,-58.5,3.17,8336.109704
123, 2018-07-09 07:40:37,-8192,607,636,5341,9413,1743,-59.34,3.57,8239.041753
124, 2018-07-09 07:40:37,-7537,-1283,1582,1779,2020,835,-59.82,3.81,7807.37997
125, 2018-07-09 07:40:37,-5466,-349,2659,2926,412,736,-59.78,4,6088.451199
126, 2018-07-09 07:40:37,-4471,1142,4386,3798,266,1713,-59.76,4.23,6366.396233
127, 2018-07-09 07:40:37,-6177,2616,3481,4097,-4808,1604,-59.41,4.64,7557.522478
128, 2018-07-09 07:40:37,-7985,1635,287,4605,-4951,1418,-59.11,4.93,8155.723083
129, 2018-07-09 07:40:37,-7665,-941,869,5964,1153,757,-59.15,5.46,7771.284772
130, 2018-07-09 07:40:37,-7083,-1781,1480,3194,619,1245,-59.21,5.66,7451.92928
131, 2018-07-09 07:40:37,-7038,-529,942,-203,-285,2006,-59.18,5.68,7120.438821
