No, waktu, accx, accY, accZ, gyroX, gyroY, gyroZ, roll, pitch,Akselerasi
1, 2018-07-09 08:53:20,-8122,97,-600,3026,-262,-1906,-72.27,-89.13,8144.70951
2, 2018-07-09 08:53:20,-8192,509,118,1963,-216,-3186,-72.3,-88.63,8208.645991
3, 2018-07-09 08:53:20,-8192,850,1277,834,-2026,-4728,-72.24,-88.38,8334.392179
4, 2018-07-09 08:53:20,-8192,1010,1874,-2145,-4939,-6970,-72.02,-88.29,8464.091209
5, 2018-07-09 08:53:20,-8192,2559,-410,-382,-2743,-5396,-71.79,-88.19,8592.173474
6, 2018-07-09 08:53:20,-8192,-1741,1191,347,-3382,-4839,-71.73,-87.94,8459.221359
7, 2018-07-09 08:53:20,-8192,-1399,1927,-2902,-3165,-558,-71.57,-87.94,8531.083987
8, 2018-07-09 08:53:20,-8192,-415,2056,-1888,-2348,6020,-71.44,-87.95,8456.253603
9, 2018-07-09 08:53:20,-8192,-670,3292,-1281,-4057,5510,-71.27,-87.82,8854.096679
10, 2018-07-09 08:53:20,-7167,-123,2566,-4657,-4017,2054,-71,-87.91,7613.499458
11, 2018-07-09 08:53:20,-6780,992,2258,-2579,-2225,3864,-70.8,-87.91,7214.639839
12, 2018-07-09 08:53:20,-7255,1213,2738,-1539,667,6100,-70.79,-87.82,7848.760284
13, 2018-07-09 08:53:20,-8192,51,1679,-2237,3608,5910,-71.02,-87.77,8362.446173
14, 2018-07-09 08:53:20,-7503,-661,1389,-4072,4147,4758,-71.28,-87.82,7659.063324
15, 2018-07-09 08:53:20,-5413,-216,1217,-4294,3896,4565,-71.48,-87.92,5552.325099
16, 2018-07-09 08:53:20,-4152,1374,1250,-4459,2271,5426,-71.56,-87.99,4548.569006
17, 2018-07-09 08:53:20,-4157,3101,1097,-4369,-105,5973,-71.5,-88.05,5300.967742
18, 2018-07-09 08:53:20,-5107,2864,788,-911,-1174,4736,-71.36,-87.94,5908.035968
19, 2018-07-09 08:53:20,-5953,1482,798,756,1043,2530,-71.31,-87.57,6186.383192
20, 2018-07-09 08:53:20,-7030,-249,303,-1434,2155,1868,-71.46,-87.36,7040.931046
21, 2018-07-09 08:53:20,-6334,229,478,-2229,1717,1457,-71.53,-87.32,6356.13727
22, 2018-07-09 08:53:20,-6444,1875,1038,-2563,932,1816,-71.56,-87.27,6791.03858
23, 2018-07-09 08:53:20,-7291,3707,-103,-2552,-483,2063,-71.52,-87.21,8179.922921
24, 2018-07-09 08:53:20,-7745,3009,-350,-1706,-715,2123,-71.47,-87.1,8316.345712
25, 2018-07-09 08:53:20,-7939,1519,-613,-618,229,2466,-71.48,-86.96,8106.22298
26, 2018-07-09 08:53:20,-8137,3932,-1157,-6,-751,3242,-71.49,-86.62,9110.984689
27, 2018-07-09 08:53:20,-8192,1895,99,848,-5794,3085,-71.24,-86.4,8408.905398
28, 2018-07-09 08:53:20,-8192,2675,1460,1332,-3232,2258,-70.97,-86.13,8740.485627
29, 2018-07-09 08:53:21,-8192,6057,3491,-448,-6048,2311,-70.75,-85.88,10769.54939
30, 2018-07-09 08:53:21,-8192,2588,773,877,-1937,1345,-70.54,-85.64,8625.783269
31, 2018-07-09 08:53:21,-8192,1975,4103,-2202,-1105,-1822,-70.52,-85.52,9372.518232
32, 2018-07-09 08:53:21,-8192,1818,2750,-2962,-285,-3156,-70.54,-85.51,8830.429661
33, 2018-07-09 08:53:21,-7134,989,1545,-2961,-25,-3526,-70.52,-85.5,7366.077789
34, 2018-07-09 08:53:21,-6152,842,826,-3064,1524,-3414,-70.56,-85.49,6264.051724
35, 2018-07-09 08:53:21,-6346,338,988,-4723,94,-2705,-70.55,-85.58,6431.337652
36, 2018-07-09 08:53:21,-7667,142,743,-4634,-292,-2416,-70.52,-85.7,7704.226243
37, 2018-07-09 08:53:21,-8192,290,-118,-4498,1706,-3331,-70.62,-85.79,8197.980727
38, 2018-07-09 08:53:21,-6115,23,800,-4656,3457,-4215,-70.8,-85.9,6167.151206
39, 2018-07-09 08:53:21,-3746,420,1471,-6396,2159,-4175,-70.87,-86.09,4046.326359
40, 2018-07-09 08:53:21,-3304,765,1292,-8054,205,-3901,-70.81,-86.38,3629.174148
41, 2018-07-09 08:53:21,-5696,190,655,-7982,-83,-3483,-70.72,-86.67,5736.683798
42, 2018-07-09 08:53:21,-6460,2249,148,-7210,1007,-3770,-70.71,-86.92,6841.893378
43, 2018-07-09 08:53:21,-5863,4867,461,-2056,1922,-617,-70.78,-86.87,7633.805015
44, 2018-07-09 08:53:21,-6925,3231,622,978,356,-796,-70.79,-86.61,7666.933546
45, 2018-07-09 08:53:21,-7078,-201,6,2736,588,-945,-70.81,-86.08,7080.855951
46, 2018-07-09 08:53:21,-7737,-1547,299,18,-1370,-56,-70.77,-85.77,7895.807685
47, 2018-07-09 08:53:21,-8192,722,-68,-1303,-1233,-45,-70.64,-85.62,8224.036235
48, 2018-07-09 08:53:21,-7873,893,563,-278,320,-1512,-70.69,-85.46,7943.459385
49, 2018-07-09 08:53:21,-7841,144,-143,527,-2135,-2694,-70.59,-85.26,7843.62582
50, 2018-07-09 08:53:21,-8192,-236,-391,-657,-3153,-3793,-70.45,-85.11,8204.720653
51, 2018-07-09 08:53:21,-8192,-46,1054,-2646,-5062,-3611,-70.19,-85.08,8259.654714
52, 2018-07-09 08:53:21,-8192,2247,3768,-4329,-2669,-369,-70.05,-85.12,9292.776603
53, 2018-07-09 08:53:21,-8192,-1348,2722,-3333,-4556,-1484,-69.85,-85.16,8737.00475
54, 2018-07-09 08:53:21,-8192,1318,-806,-4024,5108,308,-70.09,-85.2,8336.403541
55, 2018-07-09 08:53:21,-7365,1773,2479,-1709,4159,5207,-70.36,-85.18,7970.708563
56, 2018-07-09 08:53:21,-5074,33,1998,1568,-1344,6650,-70.32,-84.74,5453.308079
57, 2018-07-09 08:53:21,-5941,60,3079,-2412,-4195,2785,-70.04,-84.67,6691.73535
58, 2018-07-09 08:53:21,-7961,781,2040,-3265,-3883,3686,-69.77,-84.7,8255.245726
59, 2018-07-09 08:53:21,-8192,990,1293,-2821,2892,3535,-69.92,-84.71,8352.293877
60, 2018-07-09 08:53:21,-7685,403,1594,-1766,6138,3462,-70.29,-84.65,7858.91023
61, 2018-07-09 08:53:21,-6349,192,1563,-2293,4453,4204,-70.56,-84.6,6541.378601
62, 2018-07-09 08:53:21,-5347,1175,1462,-3749,1679,4246,-70.64,-84.63,5666.434329
63, 2018-07-09 08:53:21,-4927,1696,1586,-4164,343,3713,-70.61,-84.7,5446.755089
64, 2018-07-09 08:53:21,-4750,1900,1071,-2237,-162,3351,-70.53,-84.66,5226.80983
65, 2018-07-09 08:53:21,-5359,1374,1120,-1644,-238,3208,-70.45,-84.57,5644.568805
66, 2018-07-09 08:53:21,-6390,1154,298,-1385,450,3476,-70.41,-84.44,6500.201535
67, 2018-07-09 08:53:22,-6665,1177,356,-1159,949,3430,-70.43,-84.32,6777.484046
68, 2018-07-09 08:53:22,-6917,1223,348,-2357,1136,1969,-70.47,-84.27,7032.902815
69, 2018-07-09 08:53:22,-6632,1639,17,-3150,1642,435,-70.57,-84.27,6831.54697
70, 2018-07-09 08:53:22,-6652,2689,114,-2273,-549,877,-70.54,-84.22,7175.849845
71, 2018-07-09 08:53:22,-7854,2819,-83,-2042,-1786,1622,-70.43,-84.13,8344.996465
72, 2018-07-09 08:53:22,-8192,2227,-1098,-1577,-27,1197,-70.43,-84.04,8560.023189
73, 2018-07-09 08:53:22,-8192,2419,-1381,87,2523,1300,-70.61,-83.86,8652.605735
74, 2018-07-09 08:53:22,-8153,2504,8,-115,-358,2221,-70.62,-83.53,8528.862116
75, 2018-07-09 08:53:22,-8192,270,209,-1592,-2072,503,-70.58,-83.44,8199.112452
76, 2018-07-09 08:53:22,-8192,3345,1980,-1994,-3695,-1295,-70.4,-83.35,9067.430121
77, 2018-07-09 08:53:22,-8192,4833,2017,-4027,-1080,-412,-70.32,-83.31,9722.913247
78, 2018-07-09 08:53:22,-8192,18,1811,-1284,4227,-138,-70.59,-83.24,8389.809831
79, 2018-07-09 08:53:22,-7823,1015,2535,-2950,2122,-1534,-70.75,-83.23,8285.878288
80, 2018-07-09 08:53:22,-4753,2404,2055,-3579,-461,-3648,-70.71,-83.24,5709.049833
81, 2018-07-09 08:53:22,-5738,2542,1723,-5170,-2489,-5332,-70.51,-83.33,6508.082436
82, 2018-07-09 08:53:22,-7414,2742,147,-5587,-2181,-6344,-70.35,-83.48,7906.172842
83, 2018-07-09 08:53:22,-8192,2313,56,-2139,-958,-3924,-70.31,-83.45,8512.459633
84, 2018-07-09 08:53:22,-8192,1019,180,-745,1470,-2402,-70.41,-83.32,8257.095434
85, 2018-07-09 08:53:22,-7366,1338,67,-179,1015,-1540,-70.55,-83.07,7486.834378
86, 2018-07-09 08:53:22,-6467,1192,951,-815,-77,-2178,-70.52,-82.92,6644.347523
87, 2018-07-09 08:53:22,-6458,508,775,-1894,-17,-3376,-70.48,-82.85,6524.143852
88, 2018-07-09 08:53:22,-6403,557,766,-2603,-503,-3981,-70.42,-82.83,6472.666684
89, 2018-07-09 08:53:22,-6280,1072,730,-2804,-623,-3703,-70.34,-82.83,6412.525556
90, 2018-07-09 08:53:22,-6310,1094,-36,-1776,153,-2985,-70.3,-82.77,6404.235473
91, 2018-07-09 08:53:22,-6005,1020,791,-438,-149,-2408,-70.26,-82.63,6142.15809
92, 2018-07-09 08:53:22,-6325,1416,1056,-809,-548,-2337,-70.18,-82.49,6567.024973
93, 2018-07-09 08:53:22,-6992,914,-66,-590,1132,-2626,-70.21,-82.35,7051.795232
94, 2018-07-09 08:53:22,-7057,-182,22,-748,1016,-1635,-70.32,-82.15,7059.38078
95, 2018-07-09 08:53:22,-7524,228,464,-1692,-197,-1136,-70.3,-82.08,7541.740913
96, 2018-07-09 08:53:22,-8003,623,-93,-1206,1105,-1220,-70.36,-81.99,8027.751055
97, 2018-07-09 08:53:22,-8067,829,-275,-370,244,-953,-70.41,-81.85,8114.145365
98, 2018-07-09 08:53:22,-8192,41,465,-974,-1402,-1210,-70.39,-81.73,8205.289148
99, 2018-07-09 08:53:22,-8192,559,-208,-301,-4261,-1743,-70.21,-81.6,8213.684253
100, 2018-07-09 08:53:22,-8192,3330,1685,-616,-5745,541,-69.9,-81.39,9002.05471
101, 2018-07-09 08:53:22,-8192,-982,2958,-3294,-4255,-837,-69.65,-81.42,8764.870336
102, 2018-07-09 08:53:22,-8192,-386,-3,-4596,-519,-2815,-69.63,-81.54,8201.089501
103, 2018-07-09 08:53:22,-8192,984,2198,-4178,-828,214,-69.63,-81.65,8538.637128
104, 2018-07-09 08:53:22,-7266,-145,2016,-770,-266,3743,-69.64,-81.56,7541.885507
105, 2018-07-09 08:53:22,-5564,103,2123,263,-3974,4168,-69.29,-81.31,5956.159333
106, 2018-07-09 08:53:22,-6641,981,2831,-1574,-5343,3816,-68.93,-81.2,7285.58872
107, 2018-07-09 08:53:22,-8192,1532,1028,-1093,-1498,3895,-68.8,-81.11,8397.182385
108, 2018-07-09 08:53:23,-7970,1649,1285,1209,3321,3962,-69.09,-80.81,8239.619287
109, 2018-07-09 08:53:23,-6510,1184,1730,2430,2917,4983,-69.24,-80.47,6839.214575
110, 2018-07-09 08:53:23,-5867,896,793,-375,2179,5081,-69.33,-80.27,5987.76703
111, 2018-07-09 08:53:23,-5301,-122,99,-1914,1014,4781,-69.42,-80.2,5303.327823
112, 2018-07-09 08:53:23,-4360,-225,1020,-940,-599,4670,-69.32,-80.12,4483.372057
113, 2018-07-09 08:53:23,-5433,-131,921,-2249,-288,4787,-69.24,-80.06,5512.067761
114, 2018-07-09 08:53:23,-6952,770,-421,-4298,1487,3699,-69.28,-80.14,7007.17097
115, 2018-07-09 08:53:23,-7318,1186,-854,-4572,2328,2502,-69.39,-80.25,7462.508693
116, 2018-07-09 08:53:23,-6603,1965,187,-3561,2868,2023,-69.54,-80.29,6891.719887
117, 2018-07-09 08:53:23,-6965,2242,-340,-3637,2577,2199,-69.68,-80.32,7324.84737
118, 2018-07-09 08:53:23,-6504,2895,-26,-2189,1323,1997,-69.75,-80.28,7119.24975
119, 2018-07-09 08:53:23,-7871,2738,-1082,-712,-493,2295,-69.72,-80.13,8403.571205
120, 2018-07-09 08:53:23,-8192,2586,-969,-1102,2380,484,-69.86,-80,8644.953499
121, 2018-07-09 08:53:23,-7318,4105,162,903,-132,-184,-69.91,-79.76,8392.281752
122, 2018-07-09 08:53:23,-8192,2649,-1331,1110,-1507,1045,-69.85,-79.48,8711.924357
123, 2018-07-09 08:53:23,-8192,808,-668,781,21,708,-69.88,-79.28,8258.810568
124, 2018-07-09 08:53:23,-8104,2534,4197,5034,-3982,314,-69.73,-78.83,9471.577535
125, 2018-07-09 08:53:23,-8192,6646,684,-5408,-6061,-573,-69.42,-78.79,10570.99976
126, 2018-07-09 08:53:23,-8192,-948,-931,2640,6406,700,-69.73,-78.59,8299.05591
127, 2018-07-09 08:53:23,-8192,816,4287,1759,2132,1743,-69.95,-78.28,9281.868831
128, 2018-07-09 08:53:23,-7183,2466,2927,-805,-1141,-2309,-69.94,-78.12,8139.040115
129, 2018-07-09 08:53:23,-6385,2457,1774,-372,-3520,-1948,-69.71,-77.95,7067.683496
130, 2018-07-09 08:53:23,-7535,1642,1197,-743,-3953,-3434,-69.44,-77.81,7804.17824
131, 2018-07-09 08:53:23,-7957,923,683,-1422,-1055,-5225,-69.35,-77.72,8039.419569
132, 2018-07-09 08:53:23,-7673,623,195,-875,2651,-5257,-69.47,-77.62,7700.719642
133, 2018-07-09 08:53:23,-7047,-129,85,-614,3941,-3794,-69.69,-77.5,7048.693141
134, 2018-07-09 08:53:23,-6157,-160,707,-2526,2027,-3247,-69.8,-77.48,6199.524014
135, 2018-07-09 08:53:23,-5093,129,639,-4204,1401,-3422,-69.83,-77.56,5134.550711
136, 2018-07-09 08:53:23,-4714,471,525,-4632,1052,-3720,-69.84,-77.68,4766.4727
137, 2018-07-09 08:53:23,-5005,778,1121,-4801,-529,-3512,-69.76,-77.8,5187.672889
138, 2018-07-09 08:53:23,-5794,1324,571,-4120,-215,-2919,-69.68,-77.9,5970.716289
139, 2018-07-09 08:53:23,-6609,2150,311,-2158,-378,-1674,-69.64,-77.88,6956.874442
140, 2018-07-09 08:53:23,-6461,1867,818,-352,-675,-1344,-69.55,-77.73,6774.904723
141, 2018-07-09 08:53:23,-7721,439,642,-2226,-89,-3072,-69.53,-77.67,7760.072551
142, 2018-07-09 08:53:23,-8192,312,-1405,-2058,2445,-5024,-69.68,-77.64,8317.465539
143, 2018-07-09 08:53:23,-8192,265,-954,-99,3382,-3047,-69.93,-77.51,8251.618326
144, 2018-07-09 08:53:23,-6674,526,239,467,4023,-1349,-70.15,-77.33,6698.960591
145, 2018-07-09 08:53:23,-5680,689,-198,479,634,-864,-70.25,-77.03,5725.061135
146, 2018-07-09 08:53:24,-5928,-517,-1311,1269,1071,-2065,-70.22,-76.82,6093.208843
147, 2018-07-09 08:53:24,-7278,-531,-1801,2472,3064,-620,-70.36,-76.53,7516.305342
148, 2018-07-09 08:53:24,-8192,-356,-2085,-196,3110,-86,-70.61,-76.35,8460.66339
149, 2018-07-09 08:53:24,-8192,27,-2491,-2550,-3391,213,-70.52,-76.33,8562.398846
150, 2018-07-09 08:53:24,-8163,405,533,-4681,-8436,-417,-70.14,-76.41,8190.401883
151, 2018-07-09 08:53:24,-8134,-789,5067,-11698,32255,3591,-70.51,-76.89,9615.558538
152, 2018-07-09 08:53:24,-8192,249,707,-1252,-6272,-9913,-69.95,-77.05,8226.221125
153, 2018-07-09 08:53:24,-8192,268,1447,-6409,4812,-943,-70.32,-77.25,8323.13024
154, 2018-07-09 08:53:24,-7443,2366,3370,-4750,1363,2331,-70.45,-77.39,8506.062838
155, 2018-07-09 08:53:24,-8137,-142,2078,-1159,-6792,6528,-70.13,-77.31,8399.346225
156, 2018-07-09 08:53:24,-7663,2,1630,-927,-4659,4927,-69.79,-77.22,7834.441461
157, 2018-07-09 08:53:24,-6823,-110,1417,-2628,-1774,4003,-69.62,-77.2,6969.456076
158, 2018-07-09 08:53:24,-6182,126,587,-2620,598,4460,-69.6,-77.21,6211.084366
159, 2018-07-09 08:53:24,-6624,-143,444,-2170,1734,5035,-69.65,-77.19,6640.403677
160, 2018-07-09 08:53:24,-7097,1098,292,-3227,839,4543,-69.72,-77.22,7187.369268
161, 2018-07-09 08:53:24,-6842,2049,439,-2650,1614,5215,-69.79,-77.21,7155.70304
162, 2018-07-09 08:53:24,-6095,1792,370,-1759,1922,4926,-69.87,-77.14,6363.740174
163, 2018-07-09 08:53:24,-5932,1529,147,-461,995,4819,-69.89,-77.01,6127.648325
164, 2018-07-09 08:53:24,-5793,910,957,460,519,4870,-69.87,-76.73,5941.615774
165, 2018-07-09 08:53:24,-6217,713,870,-311,589,4281,-69.87,-76.57,6317.939379
166, 2018-07-09 08:53:24,-6735,502,426,-1440,427,2885,-69.86,-76.48,6767.104625
167, 2018-07-09 08:53:24,-7048,1420,175,-1981,1420,2156,-69.92,-76.39,7191.754237
168, 2018-07-09 08:53:24,-7005,1555,626,-2719,1535,2121,-70,-76.38,7202.772105
169, 2018-07-09 08:53:24,-7104,2180,41,-1976,297,2319,-70.01,-76.33,7431.076436
170, 2018-07-09 08:53:24,-7589,2531,368,-1672,301,2784,-70.02,-76.24,8008.389726
171, 2018-07-09 08:53:24,-8192,2365,667,-2382,1399,1469,-70.12,-76.2,8552.600657
172, 2018-07-09 08:53:24,-8192,2312,107,-1213,3181,315,-70.35,-76.1,8512.676254
173, 2018-07-09 08:53:24,-8163,1722,-112,-445,1203,154,-70.46,-75.96,8343.404401
174, 2018-07-09 08:53:24,-8192,-588,-60,-2402,-909,-741,-70.55,-75.91,8213.294589
175, 2018-07-09 08:53:24,-8192,3811,3597,-2731,-6255,-2086,-70.27,-75.84,9724.761899
176, 2018-07-09 08:53:24,-8192,5903,-1395,-5548,-1752,-268,-70.11,-75.95,10193.14956
177, 2018-07-09 08:53:24,-8192,-725,2855,-1057,1895,779,-70.32,-75.88,8705.48758
178, 2018-07-09 08:53:24,-8192,845,3898,-4133,-1979,-216,-70.24,-75.93,9111.382606
179, 2018-07-09 08:53:24,-6260,1471,1893,-4772,-1013,-2927,-70.15,-76.06,6703.349163
180, 2018-07-09 08:53:24,-7118,2036,1708,-4725,-4180,-3565,-69.91,-76.15,7597.926296
181, 2018-07-09 08:53:24,-8049,2212,688,-5300,-3384,-4203,-69.69,-76.3,8375.720208
182, 2018-07-09 08:53:24,-7978,2035,197,-2915,-562,-2931,-69.63,-76.33,8235.807064
183, 2018-07-09 08:53:24,-7893,1847,-27,94,1568,-2370,-69.72,-76.18,8106.268377
184, 2018-07-09 08:53:24,-6579,541,747,540,1811,-2418,-69.87,-75.86,6643.337339
185, 2018-07-09 08:53:24,-5122,-552,1741,-1368,723,-2941,-69.87,-75.77,5437.891963
186, 2018-07-09 08:53:24,-4732,-999,1661,-3729,-458,-3481,-69.79,-75.83,5113.584457
187, 2018-07-09 08:53:24,-6010,280,464,-4775,-809,-3019,-69.69,-75.97,6034.384476
