No, waktu, accx, accY, accZ, gyroX, gyroY, gyroZ, roll, pitch,Akselerasi
1, 2018-07-09 08:18:17,495,-330,-8192,-318,720,-496,-4.26,-1.06,8213.573461
2, 2018-07-09 08:18:17,503,56,-7577,-58,387,-205,-4.29,-1.09,7593.883986
3, 2018-07-09 08:18:17,473,-59,-7198,1055,631,388,-4.31,-1.01,7213.765591
4, 2018-07-09 08:18:17,687,-637,-7664,264,1102,157,-4.38,-0.96,7721.051353
5, 2018-07-09 08:18:17,654,-826,-7890,-477,-364,-214,-4.37,-1,7960.030904
6, 2018-07-09 08:18:17,413,-522,-7863,-272,-96,-127,-4.31,-1.05,7891.122987
7, 2018-07-09 08:18:17,138,-359,-7654,-8,-115,-139,-4.29,-1.06,7663.657156
8, 2018-07-09 08:18:17,475,-314,-7927,273,749,-650,-4.31,-1.05,7947.424111
9, 2018-07-09 08:18:17,549,-567,-7754,-220,223,-545,-4.33,-1.05,7794.062227
10, 2018-07-09 08:18:17,343,-776,-7930,-808,238,-496,-4.32,-1.13,7975.257049
11, 2018-07-09 08:18:17,816,-530,-7477,-778,821,-489,-4.37,-1.21,7540.045424
12, 2018-07-09 08:18:18,703,-157,-7553,-832,-1338,-331,-4.27,-1.28,7587.270062
13, 2018-07-09 08:18:18,548,-186,-8065,-882,60,-86,-4.19,-1.36,8085.735897
14, 2018-07-09 08:18:18,917,-141,-7623,-961,342,82,-4.22,-1.45,7679.2512
15, 2018-07-09 08:18:18,500,226,-7941,-254,-1338,187,-4.09,-1.49,7959.934485
16, 2018-07-09 08:18:18,440,96,-7798,389,194,6,-4.05,-1.45,7810.993535
17, 2018-07-09 08:18:18,273,-75,-7727,89,-593,-18,-4,-1.43,7732.184879
18, 2018-07-09 08:18:18,407,-440,-7737,-31,514,1,-4,-1.44,7760.18157
19, 2018-07-09 08:18:18,23,-294,-7554,-272,-973,-224,-3.95,-1.47,7559.75403
20, 2018-07-09 08:18:18,-123,292,-8192,725,181,-138,-3.89,-1.42,8198.125213
21, 2018-07-09 08:18:18,550,-147,-7656,825,1641,-43,-4.01,-1.33,7677.137813
22, 2018-07-09 08:18:18,548,-456,-7375,-51,-232,45,-4.02,-1.32,7409.376829
23, 2018-07-09 08:18:18,70,-190,-7967,-8,-540,-105,-3.93,-1.33,7969.572699
24, 2018-07-09 08:18:18,482,21,-7912,928,693,-58,-3.96,-1.26,7926.69597
25, 2018-07-09 08:18:18,605,-288,-7736,868,-13,-31,-3.96,-1.18,7764.963941
26, 2018-07-09 08:18:18,378,-556,-7818,134,-29,-171,-3.93,-1.15,7846.855676
27, 2018-07-09 08:18:18,364,-574,-7913,-205,298,-169,-3.93,-1.17,7942.137055
28, 2018-07-09 08:18:18,430,-495,-7847,26,215,-73,-3.93,-1.18,7874.346576
29, 2018-07-09 08:18:18,391,-382,-7748,310,59,-59,-3.92,-1.16,7767.258783
30, 2018-07-09 08:18:18,352,-391,-7790,205,-40,-93,-3.9,-1.14,7807.745193
31, 2018-07-09 08:18:18,247,-355,-7831,-106,20,-144,-3.88,-1.15,7842.932806
32, 2018-07-09 08:18:18,223,-209,-7878,-166,250,-107,-3.88,-1.16,7883.926306
33, 2018-07-09 08:18:18,305,-289,-7725,-87,655,-186,-3.92,-1.17,7736.418487
34, 2018-07-09 08:18:18,464,-316,-7716,-4,352,-137,-3.94,-1.18,7736.395026
35, 2018-07-09 08:18:18,396,-209,-7800,-62,-105,-20,-3.92,-1.19,7812.841801
36, 2018-07-09 08:18:18,399,-118,-7835,25,210,26,-3.91,-1.19,7846.040403
37, 2018-07-09 08:18:18,479,-171,-7742,124,169,-31,-3.91,-1.18,7758.68842
38, 2018-07-09 08:18:18,382,-299,-7758,67,-134,-171,-3.88,-1.17,7773.151806
39, 2018-07-09 08:18:18,280,-478,-7860,-174,14,-293,-3.86,-1.18,7879.4977
40, 2018-07-09 08:18:18,274,-387,-7896,-105,86,-184,-3.85,-1.2,7910.225092
41, 2018-07-09 08:18:18,277,-306,-7769,101,352,-78,-3.85,-1.2,7779.956684
42, 2018-07-09 08:18:18,407,-326,-7660,-33,453,-13,-3.88,-1.2,7677.729156
43, 2018-07-09 08:18:18,314,-182,-7868,-28,-395,55,-3.85,-1.21,7876.366167
44, 2018-07-09 08:18:18,202,-170,-7988,93,121,-175,-3.82,-1.2,7992.361854
45, 2018-07-09 08:18:18,314,-279,-7734,220,747,34,-3.86,-1.18,7745.398182
46, 2018-07-09 08:18:18,382,-375,-7620,-10,409,55,-3.89,-1.18,7638.779287
47, 2018-07-09 08:18:18,381,-351,-7792,-60,217,-114,-3.89,-1.19,7809.201368
48, 2018-07-09 08:18:18,322,-374,-7811,-33,194,-82,-3.89,-1.2,7826.575305
49, 2018-07-09 08:18:18,286,-288,-7826,-28,180,-121,-3.89,-1.21,7836.518104
50, 2018-07-09 08:18:18,334,-229,-7817,-5,312,-65,-3.9,-1.21,7827.482737
51, 2018-07-09 08:18:18,344,-237,-7772,8,372,-28,-3.91,-1.21,7783.218422
52, 2018-07-09 08:18:18,362,-240,-7775,103,413,-18,-3.93,-1.21,7787.121997
53, 2018-07-09 08:18:19,369,-264,-7838,119,262,27,-3.94,-1.2,7851.121003
54, 2018-07-09 08:18:19,284,-295,-7850,81,248,30,-3.94,-1.19,7860.673063
55, 2018-07-09 08:18:19,355,-255,-7751,112,449,-54,-3.96,-1.18,7763.314434
56, 2018-07-09 08:18:19,432,-282,-7718,108,363,-104,-3.97,-1.17,7735.222815
57, 2018-07-09 08:18:19,398,-305,-7792,8,195,-76,-3.97,-1.17,7808.117123
58, 2018-07-09 08:18:19,386,-303,-7799,-47,279,-73,-3.97,-1.18,7814.422947
59, 2018-07-09 08:18:19,407,-281,-7759,-61,242,-4,-3.98,-1.19,7774.747006
60, 2018-07-09 08:18:19,396,-243,-7706,23,171,-13,-3.97,-1.19,7719.993588
61, 2018-07-09 08:18:19,378,-276,-7693,10,130,-38,-3.97,-1.19,7707.224468
62, 2018-07-09 08:18:19,352,-282,-7817,-81,135,-47,-3.96,-1.2,7830.001086
63, 2018-07-09 08:18:19,386,-252,-7863,-49,206,-60,-3.96,-1.21,7876.501063
64, 2018-07-09 08:18:19,408,-296,-7815,127,168,-66,-3.95,-1.2,7831.239046
65, 2018-07-09 08:18:19,373,-275,-7841,86,128,-107,-3.95,-1.19,7854.682361
66, 2018-07-09 08:18:19,379,-320,-7797,9,386,-103,-3.95,-1.19,7812.761996
67, 2018-07-09 08:18:19,461,-309,-7705,-8,284,-99,-3.97,-1.2,7724.961294
68, 2018-07-09 08:18:19,399,-268,-7793,-70,33,-121,-3.95,-1.2,7807.808527
69, 2018-07-09 08:18:19,336,-277,-7859,-4,69,-89,-3.94,-1.21,7871.054948
70, 2018-07-09 08:18:19,343,-257,-7808,32,216,-74,-3.94,-1.21,7819.7546
71, 2018-07-09 08:18:19,363,-264,-7787,-19,177,-66,-3.93,-1.21,7799.925256
72, 2018-07-09 08:18:19,364,-263,-7813,-49,178,-59,-3.93,-1.22,7825.895093
73, 2018-07-09 08:18:19,367,-293,-7788,7,195,-71,-3.93,-1.22,7802.145987
74, 2018-07-09 08:18:19,355,-299,-7765,31,138,-75,-3.92,-1.22,7778.859235
75, 2018-07-09 08:18:19,355,-294,-7850,-31,170,-92,-3.92,-1.22,7863.520904
76, 2018-07-09 08:18:19,392,-279,-7767,-18,235,-83,-3.92,-1.23,7781.888845
77, 2018-07-09 08:18:19,380,-283,-7767,-64,60,-89,-3.91,-1.23,7781.438042
78, 2018-07-09 08:18:19,347,-263,-7815,-45,65,-85,-3.9,-1.24,7827.119713
79, 2018-07-09 08:18:19,338,-246,-7815,5,200,-66,-3.89,-1.24,7826.173075
80, 2018-07-09 08:18:19,316,-243,-7750,-3,182,-60,-3.89,-1.24,7760.245164
81, 2018-07-09 08:18:19,371,-237,-7803,-6,176,-70,-3.89,-1.25,7815.409074
82, 2018-07-09 08:18:19,347,-275,-7758,-31,118,-81,-3.88,-1.25,7770.624042
83, 2018-07-09 08:18:19,305,-253,-7820,-49,51,-71,-3.87,-1.26,7830.0341
84, 2018-07-09 08:18:19,341,-261,-7835,39,189,-102,-3.86,-1.26,7846.759012
85, 2018-07-09 08:18:19,350,-272,-7796,12,194,-82,-3.86,-1.26,7808.591422
86, 2018-07-09 08:18:19,344,-263,-7790,28,113,-60,-3.86,-1.26,7802.025698
87, 2018-07-09 08:18:19,248,-252,-7878,25,118,-76,-3.85,-1.25,7885.930002
88, 2018-07-09 08:18:19,305,-264,-7758,46,424,-93,-3.86,-1.25,7768.480225
89, 2018-07-09 08:18:19,404,-246,-7712,-17,220,-102,-3.87,-1.25,7726.49183
90, 2018-07-09 08:18:19,323,-225,-7801,-28,30,-71,-3.86,-1.26,7810.925361
91, 2018-07-09 08:18:19,294,-237,-7785,26,159,-51,-3.85,-1.26,7794.153578
92, 2018-07-09 08:18:19,300,-270,-7802,35,179,-84,-3.85,-1.26,7812.432656
93, 2018-07-09 08:18:19,307,-248,-7729,-26,102,-106,-3.84,-1.26,7739.069324
94, 2018-07-09 08:18:19,279,-267,-7797,-28,138,-103,-3.83,-1.26,7806.557436
95, 2018-07-09 08:18:20,302,-229,-7819,-29,128,-75,-3.83,-1.27,7828.180248
96, 2018-07-09 08:18:20,290,-211,-7796,30,111,-59,-3.82,-1.27,7804.244807
97, 2018-07-09 08:18:20,307,-257,-7787,22,215,-85,-3.82,-1.27,7797.285874
98, 2018-07-09 08:18:20,343,-254,-7781,-8,159,-75,-3.82,-1.27,7792.696966
99, 2018-07-09 08:18:20,324,-243,-7799,-39,88,-73,-3.81,-1.27,7809.508691
100, 2018-07-09 08:18:20,279,-234,-7811,13,173,-91,-3.81,-1.27,7819.483231
101, 2018-07-09 08:18:20,268,-231,-7796,23,196,-78,-3.81,-1.27,7804.024667
102, 2018-07-09 08:18:20,287,-248,-7789,-2,211,-79,-3.81,-1.27,7798.230184
103, 2018-07-09 08:18:20,296,-236,-7815,2,177,-87,-3.81,-1.27,7824.163661
104, 2018-07-09 08:18:20,280,-238,-7754,5,158,-76,-3.8,-1.27,7762.703137
105, 2018-07-09 08:18:20,269,-191,-7798,10,138,-92,-3.8,-1.27,7804.975721
106, 2018-07-09 08:18:20,298,-223,-7778,41,263,-71,-3.8,-1.27,7786.900346
107, 2018-07-09 08:18:20,356,-256,-7766,65,251,-81,-3.81,-1.27,7778.369238
108, 2018-07-09 08:18:20,264,-212,-7829,13,38,-69,-3.8,-1.27,7836.318077
109, 2018-07-09 08:18:20,206,-242,-7847,35,388,-79,-3.81,-1.27,7853.432944
110, 2018-07-09 08:18:20,381,-253,-7710,42,379,-94,-3.83,-1.26,7723.552939
111, 2018-07-09 08:18:20,335,-220,-7746,31,49,-95,-3.82,-1.26,7756.361325
112, 2018-07-09 08:18:20,241,-208,-7876,39,183,-86,-3.82,-1.26,7882.43116
113, 2018-07-09 08:18:20,308,-204,-7834,147,342,-72,-3.83,-1.25,7842.705911
114, 2018-07-09 08:18:20,291,-245,-7722,68,172,-68,-3.83,-1.24,7731.364045
115, 2018-07-09 08:18:20,252,-268,-7792,4,110,-58,-3.82,-1.24,7800.678945
116, 2018-07-09 08:18:20,265,-220,-7852,121,306,-79,-3.83,-1.23,7859.550178
117, 2018-07-09 08:18:20,289,-259,-7810,87,171,-83,-3.83,-1.22,7819.635669
118, 2018-07-09 08:18:20,254,-259,-7826,-8,304,-79,-3.84,-1.23,7834.403168
119, 2018-07-09 08:18:20,328,-208,-7764,88,332,-60,-3.86,-1.22,7773.70851
120, 2018-07-09 08:18:20,291,-241,-7737,77,204,-87,-3.86,-1.21,7746.220433
121, 2018-07-09 08:18:20,269,-269,-7794,7,256,-88,-3.86,-1.21,7803.27867
122, 2018-07-09 08:18:20,262,-229,-7759,-17,237,-93,-3.87,-1.22,7766.798955
123, 2018-07-09 08:18:20,257,-240,-7766,56,296,-99,-3.87,-1.21,7773.956843
124, 2018-07-09 08:18:20,301,-254,-7741,79,258,-92,-3.88,-1.21,7751.012708
125, 2018-07-09 08:18:20,305,-219,-7798,39,179,-106,-3.88,-1.21,7807.034648
126, 2018-07-09 08:18:20,257,-227,-7806,36,220,-103,-3.88,-1.21,7813.527628
127, 2018-07-09 08:18:20,292,-211,-7792,92,317,-84,-3.89,-1.2,7800.323647
128, 2018-07-09 08:18:20,332,-262,-7770,117,357,-88,-3.91,-1.19,7781.501655
129, 2018-07-09 08:18:20,288,-240,-7887,65,133,-83,-3.91,-1.18,7895.904825
130, 2018-07-09 08:18:20,210,-253,-7893,107,463,-82,-3.92,-1.18,7899.845442
131, 2018-07-09 08:18:20,359,-248,-7724,113,519,-101,-3.95,-1.17,7736.314433
132, 2018-07-09 08:18:20,370,-260,-7738,33,144,-98,-3.95,-1.17,7751.202745
133, 2018-07-09 08:18:20,257,-256,-7801,76,182,-83,-3.95,-1.16,7809.429301
134, 2018-07-09 08:18:20,284,-270,-7843,96,374,-90,-3.96,-1.16,7852.783265
135, 2018-07-09 08:18:20,303,-241,-7732,61,266,-77,-3.97,-1.15,7741.686767
136, 2018-07-09 08:18:20,331,-255,-7760,41,250,-84,-3.97,-1.15,7771.240956
137, 2018-07-09 08:18:21,331,-241,-7786,62,299,-82,-3.98,-1.15,7796.758172
138, 2018-07-09 08:18:21,315,-245,-7801,95,281,-85,-3.99,-1.14,7811.200356
139, 2018-07-09 08:18:21,335,-260,-7797,63,322,-105,-4,-1.14,7808.523164
140, 2018-07-09 08:18:21,342,-250,-7815,54,339,-97,-4.01,-1.13,7826.473599
141, 2018-07-09 08:18:21,349,-280,-7790,81,248,-87,-4.02,-1.13,7802.839291
142, 2018-07-09 08:18:21,315,-265,-7762,96,260,-92,-4.02,-1.12,7772.907693
143, 2018-07-09 08:18:21,333,-258,-7795,68,314,-93,-4.03,-1.12,7806.37419
144, 2018-07-09 08:18:21,329,-258,-7777,46,323,-90,-4.04,-1.12,7788.230479
145, 2018-07-09 08:18:21,340,-254,-7782,62,302,-79,-4.05,-1.11,7793.564011
146, 2018-07-09 08:18:21,340,-280,-7776,62,245,-82,-4.05,-1.11,7788.46429
147, 2018-07-09 08:18:21,344,-267,-7789,35,241,-90,-4.05,-1.11,7801.163118
148, 2018-07-09 08:18:21,387,-232,-7722,12,266,-75,-4.06,-1.11,7735.171427
149, 2018-07-09 08:18:21,363,-285,-7767,76,207,-82,-4.06,-1.11,7780.69939
150, 2018-07-09 08:18:21,307,-262,-7881,32,73,-80,-4.05,-1.1,7891.327772
151, 2018-07-09 08:18:21,285,-272,-7848,46,377,-58,-4.06,-1.1,7857.882221
152, 2018-07-09 08:18:21,406,-249,-7720,28,303,-69,-4.07,-1.1,7734.677563
153, 2018-07-09 08:18:21,388,-239,-7727,-1,150,-117,-4.07,-1.1,7740.425957
1, 2018-07-09 08:18:27,267,-289,-7884,39,324,-89,-4.25,-0.92,7893.81188
2, 2018-07-09 08:18:27,323,-248,-7800,13,298,-78,-4.26,-0.92,7810.623087
3, 2018-07-09 08:18:27,307,-232,-7790,50,191,-75,-4.26,-0.92,7799.498253
4, 2018-07-09 08:18:27,193,-145,-7806,-17,139,-92,-4.26,-0.92,7809.73175
5, 2018-07-09 08:18:27,276,-232,-7749,71,373,-93,-4.26,-0.92,7757.383644
6, 2018-07-09 08:18:27,383,-75,-7752,129,106,-177,-4.26,-0.91,7761.817957
7, 2018-07-09 08:18:27,341,-95,-7833,322,140,-111,-4.26,-0.88,7840.994516
8, 2018-07-09 08:18:27,169,-330,-7834,175,71,-313,-4.24,-0.86,7842.768453
9, 2018-07-09 08:18:27,378,-568,-7831,-232,836,-223,-4.28,-0.87,7860.665939
10, 2018-07-09 08:18:27,392,-493,-7630,-701,-250,-26,-4.28,-0.94,7655.952782
11, 2018-07-09 08:18:27,68,-132,-7874,-288,-242,-81,-4.23,-0.99,7875.399926
12, 2018-07-09 08:18:27,44,-66,-7763,167,454,-50,-4.24,-0.98,7763.405245
13, 2018-07-09 08:18:27,645,-351,-7209,-694,-3440,202,-4.11,-1,7246.302988
14, 2018-07-09 08:18:27,1901,-821,-6680,-926,-4955,688,-3.84,-1.06,6993.585776
15, 2018-07-09 08:18:27,475,-318,-6865,-6528,-17603,-1593,-2.74,-1.33,6888.757072
16, 2018-07-09 08:18:27,165,1109,-7303,-7303,-31283,-9495,-1.04,-1.69,7388.566505
17, 2018-07-09 08:18:27,-2628,-259,-8192,-8700,-25494,-7679,0.62,-2.24,8607.109213
18, 2018-07-09 08:18:27,-3781,1503,-7464,-1242,-2809,-10227,0.91,-2.31,8500.95677
19, 2018-07-09 08:18:27,-3231,431,-8192,3880,5006,-8762,0.72,-2.13,8816.687927
20, 2018-07-09 08:18:27,-2228,15,-7969,809,6282,2790,0.02,-2.04,8274.609961
21, 2018-07-09 08:18:27,-2330,-314,-8007,648,8899,4072,-0.53,-1.99,8345.031156
22, 2018-07-09 08:18:27,-876,13,-8029,841,9154,4632,-1.39,-1.91,8076.656858
23, 2018-07-09 08:18:27,-921,260,-7832,2035,10446,4779,-2.02,-1.8,7890.251263
24, 2018-07-09 08:18:27,-388,-51,-7072,2244,7688,5408,-2.84,-1.57,7082.819283
25, 2018-07-09 08:18:27,-394,-31,-6541,2933,8027,673,-3.57,-1.33,6552.928963
26, 2018-07-09 08:18:27,133,-99,-7428,-582,89,211,-3.71,-1.33,7429.8502
27, 2018-07-09 08:18:27,-389,183,-8192,-916,155,279,-3.7,-1.41,8203.272152
28, 2018-07-09 08:18:27,-191,182,-7738,3,434,246,-3.74,-1.43,7742.496303
29, 2018-07-09 08:18:28,-107,150,-7635,414,88,160,-3.74,-1.39,7637.222925
30, 2018-07-09 08:18:28,-205,170,-7697,359,132,-153,-3.74,-1.35,7701.605936
31, 2018-07-09 08:18:28,-334,17,-7902,175,443,-196,-3.77,-1.32,7909.07384
32, 2018-07-09 08:18:28,-282,-36,-7842,267,315,-181,-3.8,-1.3,7847.15133
33, 2018-07-09 08:18:28,-301,-200,-7633,310,194,-112,-3.81,-1.27,7641.550235
34, 2018-07-09 08:18:28,-256,-91,-7689,355,351,-102,-3.84,-1.24,7693.798672
35, 2018-07-09 08:18:28,-205,-102,-7831,361,370,-174,-3.85,-1.21,7834.346814
36, 2018-07-09 08:18:28,-292,-180,-7937,246,390,-188,-3.88,-1.19,7944.408914
37, 2018-07-09 08:18:28,-295,-112,-7733,234,475,-133,-3.92,-1.17,7739.435251
38, 2018-07-09 08:18:28,-290,-245,-7741,177,261,-84,-3.94,-1.15,7750.303607
39, 2018-07-09 08:18:28,-333,-166,-7697,55,149,-36,-3.95,-1.14,7705.988191
40, 2018-07-09 08:18:28,-391,-185,-7766,52,389,21,-3.97,-1.14,7778.037156
41, 2018-07-09 08:18:28,-249,-242,-7759,-63,648,110,-4.03,-1.14,7766.765479
42, 2018-07-09 08:18:28,-129,-81,-7751,68,153,-1,-4.04,-1.14,7752.496566
43, 2018-07-09 08:18:28,-110,38,-7757,70,6,62,-4.03,-1.13,7757.872969
44, 2018-07-09 08:18:28,-270,-96,-7660,-70,280,-17,-4.04,-1.13,7665.358178
45, 2018-07-09 08:18:28,-349,-37,-7736,-223,105,-308,-4.05,-1.14,7743.956741
46, 2018-07-09 08:18:28,-270,0,-8022,115,356,-154,-4.07,-1.14,8026.542469
47, 2018-07-09 08:18:28,-217,8,-7758,600,225,29,-4.09,-1.09,7761.038397
48, 2018-07-09 08:18:28,-335,150,-7699,458,246,-179,-4.1,-1.04,7707.744547
49, 2018-07-09 08:18:28,-282,-89,-7748,239,296,-185,-4.12,-1.01,7753.641016
50, 2018-07-09 08:18:28,-167,-332,-7700,36,356,-110,-4.15,-1,7708.96316
51, 2018-07-09 08:18:28,-248,-309,-7699,121,-81,-42,-4.14,-1,7709.188414
52, 2018-07-09 08:18:28,-310,-171,-7906,280,70,-76,-4.13,-0.98,7913.922984
53, 2018-07-09 08:18:28,-214,-275,-7753,146,398,-86,-4.16,-0.96,7760.826631
54, 2018-07-09 08:18:28,-219,-349,-7690,-344,164,-152,-4.17,-0.99,7701.029931
55, 2018-07-09 08:18:28,-315,-38,-7752,-235,-103,-90,-4.16,-1.01,7758.490382
56, 2018-07-09 08:18:28,-337,-92,-7816,-99,234,-102,-4.16,-1.02,7823.80272
57, 2018-07-09 08:18:28,-253,-48,-7799,-2,359,-44,-4.19,-1.03,7803.25022
58, 2018-07-09 08:18:28,-201,-39,-7783,67,283,26,-4.21,-1.02,7785.692712
59, 2018-07-09 08:18:28,-214,-63,-7740,34,156,-36,-4.22,-1.01,7743.214126
60, 2018-07-09 08:18:28,-249,-108,-7726,-17,163,-49,-4.23,-1.01,7730.765874
61, 2018-07-09 08:18:28,-355,-120,-7760,-59,207,-96,-4.24,-1.01,7769.042734
62, 2018-07-09 08:18:29,-313,-211,-7802,-182,554,-70,-4.27,-1.03,7811.126295
63, 2018-07-09 08:18:29,-204,-133,-7826,-86,345,-46,-4.3,-1.04,7829.788056
64, 2018-07-09 08:18:29,-216,-150,-7812,21,190,-57,-4.32,-1.04,7816.425014
65, 2018-07-09 08:18:29,-290,-203,-7720,-18,238,46,-4.33,-1.04,7728.111606
66, 2018-07-09 08:18:29,-263,-80,-7747,-108,322,66,-4.35,-1.05,7751.875773
67, 2018-07-09 08:18:29,-246,16,-7772,-122,120,-26,-4.36,-1.06,7775.908693
68, 2018-07-09 08:18:29,-252,37,-7920,-32,164,-54,-4.36,-1.06,7924.094459
69, 2018-07-09 08:18:29,-289,-56,-7749,53,383,-78,-4.39,-1.05,7754.58948
70, 2018-07-09 08:18:29,-211,-37,-7685,20,203,-59,-4.4,-1.05,7687.985107
71, 2018-07-09 08:18:29,-244,26,-7779,50,156,-119,-4.41,-1.04,7782.869201
72, 2018-07-09 08:18:29,-232,-112,-7775,58,124,-161,-4.41,-1.03,7779.266868
73, 2018-07-09 08:18:29,-302,-146,-7862,97,66,-76,-4.41,-1.03,7869.152686
74, 2018-07-09 08:18:29,-319,-110,-7813,26,178,-103,-4.42,-1.02,7820.283243
75, 2018-07-09 08:18:29,-256,-189,-7780,-19,233,-131,-4.43,-1.02,7786.5048
76, 2018-07-09 08:18:29,-274,-160,-7783,-70,316,-83,-4.45,-1.03,7789.465001
77, 2018-07-09 08:18:29,-241,-104,-7756,-105,313,-78,-4.47,-1.03,7760.440258
78, 2018-07-09 08:18:29,-243,-57,-7809,-89,190,-88,-4.48,-1.04,7812.987841
79, 2018-07-09 08:18:29,-261,-28,-7762,98,198,-58,-4.49,-1.04,7766.437343
80, 2018-07-09 08:18:29,-260,-15,-7734,86,155,-82,-4.5,-1.02,7738.383617
81, 2018-07-09 08:18:29,-264,-43,-7777,-42,163,-101,-4.51,-1.02,7781.598422
82, 2018-07-09 08:18:29,-281,-28,-7777,-28,169,-96,-4.51,-1.02,7782.125288
83, 2018-07-09 08:18:29,-269,-77,-7803,63,221,-85,-4.52,-1.02,7808.015049
84, 2018-07-09 08:18:29,-252,-92,-7770,122,164,-73,-4.53,-1.01,7774.629766
85, 2018-07-09 08:18:29,-273,-101,-7808,23,81,-102,-4.54,-1,7813.423961
86, 2018-07-09 08:18:29,-292,-78,-7825,8,167,-106,-4.54,-1,7830.834758
87, 2018-07-09 08:18:29,-248,-91,-7795,39,350,-82,-4.56,-0.99,7799.474982
88, 2018-07-09 08:18:29,-256,-136,-7800,29,226,-84,-4.58,-0.99,7805.384808
89, 2018-07-09 08:18:29,-314,-84,-7952,16,209,-43,-4.59,-0.99,7958.640336
90, 2018-07-09 08:18:29,-333,-147,-7868,17,665,-55,-4.63,-0.99,7876.415555
91, 2018-07-09 08:18:29,-186,-99,-7837,159,569,-4,-4.68,-0.97,7839.832014
92, 2018-07-09 08:18:29,-172,-47,-7647,207,741,-14,-4.73,-0.95,7649.078507
93, 2018-07-09 08:18:29,-225,32,-7580,115,441,-110,-4.77,-0.94,7583.406161
94, 2018-07-09 08:18:30,-257,-64,-7813,-16,193,-135,-4.78,-0.93,7817.487704
95, 2018-07-09 08:18:30,-250,-114,-7791,-44,261,-49,-4.79,-0.94,7795.843572
96, 2018-07-09 08:18:30,-295,-84,-7701,79,295,-35,-4.81,-0.94,7707.105942
97, 2018-07-09 08:18:30,-195,-98,-7769,50,215,-97,-4.82,-0.93,7772.064719
98, 2018-07-09 08:18:30,-194,-107,-7711,-30,214,-97,-4.83,-0.93,7714.182134
99, 2018-07-09 08:18:30,-227,-91,-7763,-142,106,-106,-4.84,-0.94,7766.851293
100, 2018-07-09 08:18:30,-207,-80,-7886,-46,162,-97,-4.84,-0.95,7889.121941
101, 2018-07-09 08:18:30,-197,-10,-7854,149,265,-71,-4.85,-0.93,7856.476628
102, 2018-07-09 08:18:30,-218,-45,-7807,98,243,-108,-4.86,-0.92,7810.172725
103, 2018-07-09 08:18:30,-226,-103,-7746,-15,268,-103,-4.88,-0.92,7749.98071
104, 2018-07-09 08:18:30,-240,-72,-7750,19,253,-61,-4.89,-0.92,7754.049523
105, 2018-07-09 08:18:30,-238,-68,-7787,31,190,-85,-4.9,-0.91,7790.932999
106, 2018-07-09 08:18:30,-194,-82,-7776,65,186,-96,-4.91,-0.91,7778.851843
107, 2018-07-09 08:18:30,-246,-57,-7756,91,151,-81,-4.91,-0.9,7760.1096
108, 2018-07-09 08:18:30,-211,-54,-7749,72,202,-105,-4.92,-0.89,7752.060242
109, 2018-07-09 08:18:30,-196,-73,-7827,-48,68,-103,-4.92,-0.89,7829.793995
110, 2018-07-09 08:18:30,-222,-92,-7874,87,49,-45,-4.91,-0.88,7877.666152
111, 2018-07-09 08:18:30,-313,-89,-7820,194,340,-56,-4.92,-0.87,7826.767532
112, 2018-07-09 08:18:30,-179,-138,-7655,95,398,-89,-4.96,-0.85,7658.335981
113, 2018-07-09 08:18:30,-183,-85,-7845,16,167,-98,-4.96,-0.85,7847.594472
114, 2018-07-09 08:18:30,-266,-65,-7742,75,211,-93,-4.97,-0.84,7746.840969
115, 2018-07-09 08:18:30,-230,-119,-7764,26,185,-91,-4.98,-0.84,7768.317514
116, 2018-07-09 08:18:30,-259,-117,-7771,11,133,-66,-4.98,-0.84,7776.195149
117, 2018-07-09 08:18:30,-281,-47,-7778,46,223,-73,-4.99,-0.84,7783.216173
118, 2018-07-09 08:18:30,-212,-83,-7792,26,259,-84,-5,-0.83,7795.32533
119, 2018-07-09 08:18:30,-227,-86,-7776,43,236,-81,-5.01,-0.83,7779.787979
120, 2018-07-09 08:18:30,-233,-87,-7726,54,233,-82,-5.03,-0.82,7730.002199
121, 2018-07-09 08:18:30,-207,-72,-7767,-19,216,-84,-5.04,-0.82,7770.091505
122, 2018-07-09 08:18:30,-243,-76,-7774,-7,134,-93,-5.04,-0.82,7778.168229
123, 2018-07-09 08:18:30,-256,-90,-7806,9,128,-83,-5.04,-0.82,7810.715204
124, 2018-07-09 08:18:31,-265,-64,-7811,44,194,-68,-5.05,-0.82,7815.756009
125, 2018-07-09 08:18:31,-265,-72,-7752,13,201,-98,-5.06,-0.81,7756.862317
126, 2018-07-09 08:18:31,-245,-93,-7758,-77,255,-82,-5.07,-0.82,7762.42475
127, 2018-07-09 08:18:31,-247,-99,-7745,-40,206,-28,-5.08,-0.82,7749.569988
128, 2018-07-09 08:18:31,-235,-61,-7777,50,15,-68,-5.08,-0.82,7780.788842
129, 2018-07-09 08:18:31,-289,-23,-7836,84,138,-86,-5.07,-0.81,7841.361234
130, 2018-07-09 08:18:31,-242,-45,-7774,7,331,-102,-5.09,-0.81,7777.895924
131, 2018-07-09 08:18:31,-234,-96,-7754,56,195,-103,-5.1,-0.8,7758.124
132, 2018-07-09 08:18:31,-312,-110,-7904,31,148,-64,-5.1,-0.8,7910.9203
133, 2018-07-09 08:18:31,-276,-93,-7706,123,470,-42,-5.13,-0.79,7711.501864
134, 2018-07-09 08:18:31,-196,-83,-7690,26,120,-71,-5.14,-0.78,7692.945145
135, 2018-07-09 08:18:31,-248,-168,-7766,-195,187,-58,-5.15,-0.79,7771.774829
136, 2018-07-09 08:18:31,-260,-68,-7839,-1,144,-22,-5.15,-0.8,7843.605357
137, 2018-07-09 08:18:31,-262,-32,-7804,142,126,-86,-5.15,-0.79,7808.462333
138, 2018-07-09 08:18:31,-292,-46,-7808,16,201,-108,-5.16,-0.78,7813.593539
139, 2018-07-09 08:18:31,-260,-82,-7778,-57,306,-90,-5.18,-0.78,7782.776368
140, 2018-07-09 08:18:31,-237,-27,-7773,4,133,-73,-5.18,-0.78,7776.659116
141, 2018-07-09 08:18:31,-293,-58,-7776,93,154,-59,-5.18,-0.78,7781.734318
142, 2018-07-09 08:18:31,-293,-25,-7759,57,220,-84,-5.19,-0.77,7764.570497
143, 2018-07-09 08:18:31,-244,-76,-7772,-7,189,-98,-5.2,-0.77,7776.200615
144, 2018-07-09 08:18:31,-250,-109,-7779,-44,136,-84,-5.2,-0.77,7783.779416
145, 2018-07-09 08:18:31,-278,-67,-7780,24,146,-93,-5.21,-0.77,7785.25356
146, 2018-07-09 08:18:31,-294,-75,-7769,3,90,-99,-5.21,-0.77,7774.922636
147, 2018-07-09 08:18:31,-289,-85,-7764,-75,210,-56,-5.21,-0.77,7769.841826
148, 2018-07-09 08:18:31,-280,-34,-7767,0,111,-47,-5.22,-0.77,7772.119724
149, 2018-07-09 08:18:31,-271,3,-7763,70,93,-92,-5.22,-0.77,7767.729334
150, 2018-07-09 08:18:31,-287,-53,-7760,34,196,-83,-5.22,-0.76,7765.486334
151, 2018-07-09 08:18:31,-240,-29,-7804,-4,225,-99,-5.23,-0.76,7807.7434
152, 2018-07-09 08:18:31,-269,-56,-7786,52,279,-83,-5.25,-0.76,7790.846745
153, 2018-07-09 08:18:31,-284,-110,-7853,78,156,-69,-5.26,-0.75,7858.903549
154, 2018-07-09 08:18:31,-366,-24,-7766,82,339,-70,-5.27,-0.74,7774.656777
155, 2018-07-09 08:18:31,-254,-71,-7652,38,294,-94,-5.29,-0.73,7656.543672
156, 2018-07-09 08:18:31,-239,-53,-7772,-48,190,-89,-5.3,-0.73,7775.854551
157, 2018-07-09 08:18:31,-295,-38,-7783,6,149,-101,-5.3,-0.74,7788.681403
158, 2018-07-09 08:18:31,-304,-53,-7792,60,129,-100,-5.31,-0.73,7798.10804
159, 2018-07-09 08:18:32,-285,-42,-7765,6,221,-78,-5.31,-0.73,7770.341949
160, 2018-07-09 08:18:32,-281,-45,-7749,4,182,-94,-5.32,-0.72,7754.223817
161, 2018-07-09 08:18:32,-287,-46,-7793,-1,149,-91,-5.33,-0.72,7798.418686
162, 2018-07-09 08:18:32,-310,-58,-7814,15,198,-93,-5.33,-0.72,7820.361884
163, 2018-07-09 08:18:32,-309,-64,-7758,53,172,-87,-5.34,-0.72,7764.415046
164, 2018-07-09 08:18:32,-286,-68,-7792,19,201,-84,-5.35,-0.71,7797.543459
165, 2018-07-09 08:18:32,-272,-54,-7791,21,202,-89,-5.36,-0.71,7795.93362
166, 2018-07-09 08:18:32,-326,-40,-7752,71,200,-88,-5.37,-0.7,7758.954827
167, 2018-07-09 08:18:32,-336,-25,-7779,56,212,-97,-5.38,-0.7,7786.293213
168, 2018-07-09 08:18:32,-314,-38,-7758,41,267,-77,-5.39,-0.69,7764.444861
169, 2018-07-09 08:18:32,-294,-30,-7729,62,208,-74,-5.4,-0.69,7734.647827
170, 2018-07-09 08:18:32,-337,-48,-7756,70,188,-79,-5.41,-0.68,7763.466301
171, 2018-07-09 08:18:32,-308,-78,-7820,26,198,-80,-5.42,-0.67,7826.451814
172, 2018-07-09 08:18:32,-273,-72,-7826,72,282,-61,-5.43,-0.67,7831.091176
173, 2018-07-09 08:18:32,-294,-37,-7783,79,329,-83,-5.45,-0.66,7788.638777
174, 2018-07-09 08:18:32,-280,-121,-7758,76,249,-59,-5.46,-0.65,7763.99414
175, 2018-07-09 08:18:32,-357,-35,-7838,95,252,-80,-5.47,-0.64,7846.20405
176, 2018-07-09 08:18:32,-309,-48,-7690,107,395,-100,-5.5,-0.63,7696.355306
177, 2018-07-09 08:18:32,-219,-46,-7747,62,284,-94,-5.52,-0.62,7750.231351
178, 2018-07-09 08:18:32,-311,-42,-7809,-12,249,-87,-5.53,-0.62,7815.303321
179, 2018-07-09 08:18:32,-293,-63,-7822,69,266,-74,-5.54,-0.62,7827.739265
180, 2018-07-09 08:18:32,-274,-77,-7790,107,228,-74,-5.55,-0.61,7795.19756
181, 2018-07-09 08:18:32,-300,-66,-7733,50,324,-93,-5.57,-0.6,7739.098462
182, 2018-07-09 08:18:32,-264,-84,-7776,-14,258,-95,-5.58,-0.6,7780.93362
183, 2018-07-09 08:18:32,-285,-63,-7824,33,255,-92,-5.6,-0.6,7829.442509
184, 2018-07-09 08:18:32,-285,-80,-7779,112,226,-69,-5.61,-0.59,7784.630113
185, 2018-07-09 08:18:32,-232,-33,-7794,77,306,-85,-5.62,-0.58,7797.521978
186, 2018-07-09 08:18:32,-225,-32,-7751,30,254,-106,-5.63,-0.58,7754.331048
187, 2018-07-09 08:18:33,-286,-59,-7793,29,203,-84,-5.64,-0.57,7798.469465
188, 2018-07-09 08:18:33,-309,-84,-7786,90,258,-64,-5.65,-0.57,7792.581921
189, 2018-07-09 08:18:33,-283,-45,-7776,86,294,-80,-5.67,-0.56,7781.278173
190, 2018-07-09 08:18:33,-261,-83,-7798,58,341,-95,-5.69,-0.55,7802.808084
191, 2018-07-09 08:18:33,-268,-78,-7747,54,275,-92,-5.71,-0.55,7752.026638
192, 2018-07-09 08:18:33,-261,-68,-7762,68,254,-87,-5.72,-0.54,7766.684556
193, 2018-07-09 08:18:33,-263,-58,-7812,63,229,-99,-5.73,-0.54,7816.641031
194, 2018-07-09 08:18:33,-211,-62,-7849,67,303,-89,-5.74,-0.53,7852.080361
195, 2018-07-09 08:18:33,-221,-89,-7769,0,256,-73,-5.75,-0.53,7772.65225
196, 2018-07-09 08:18:33,-307,-100,-7838,7,168,-36,-5.76,-0.53,7844.647411
197, 2018-07-09 08:18:33,-336,-63,-7802,114,511,-39,-5.79,-0.52,7809.485835
198, 2018-07-09 08:18:33,-202,-115,-7701,88,438,-56,-5.82,-0.51,7704.507122
199, 2018-07-09 08:18:33,-179,-47,-7799,-18,277,-81,-5.83,-0.51,7801.195485
200, 2018-07-09 08:18:33,-262,-73,-7806,17,235,-95,-5.84,-0.51,7810.736777
201, 2018-07-09 08:18:33,-255,-53,-7719,29,285,-89,-5.86,-0.5,7723.392713
202, 2018-07-09 08:18:33,-264,-50,-7710,38,208,-80,-5.87,-0.5,7714.680551
203, 2018-07-09 08:18:33,-299,-85,-7767,48,222,-86,-5.87,-0.5,7773.217802
204, 2018-07-09 08:18:33,-276,-51,-7800,39,196,-89,-5.88,-0.49,7805.048174
205, 2018-07-09 08:18:33,-271,-49,-7770,110,194,-72,-5.88,-0.48,7774.878906
206, 2018-07-09 08:18:33,-241,-119,-7764,-26,213,-76,-5.89,-0.48,7768.650977
207, 2018-07-09 08:18:33,-207,-89,-7789,35,177,-16,-5.9,-0.49,7792.258402
208, 2018-07-09 08:18:33,-265,-67,-7816,161,72,-103,-5.89,-0.47,7820.778094
209, 2018-07-09 08:18:33,-306,-108,-7823,100,313,-143,-5.9,-0.46,7829.727262
210, 2018-07-09 08:18:33,-265,-139,-7733,-113,289,-81,-5.92,-0.47,7738.787696
211, 2018-07-09 08:18:33,-261,-106,-7701,-153,162,-57,-5.92,-0.48,7706.15066
212, 2018-07-09 08:18:33,-247,-8,-7809,18,166,-40,-5.92,-0.48,7812.909445
213, 2018-07-09 08:18:33,-265,-32,-7801,46,264,-10,-5.93,-0.48,7805.565322
214, 2018-07-09 08:18:33,-301,-57,-7788,-36,150,-98,-5.94,-0.48,7794.022966
215, 2018-07-09 08:18:33,-324,-26,-7786,23,251,-102,-5.95,-0.48,7792.781788
216, 2018-07-09 08:18:33,-261,-28,-7762,78,385,-135,-5.97,-0.47,7766.437343
217, 2018-07-09 08:18:33,-203,-161,-7807,58,280,-178,-5.98,-0.46,7811.298164
218, 2018-07-09 08:18:33,-316,-109,-7822,-25,271,-134,-5.99,-0.46,7829.139225
219, 2018-07-09 08:18:33,-456,0,-7548,92,412,-45,-6.02,-0.46,7561.761699
220, 2018-07-09 08:18:33,-390,23,-7857,351,1040,40,-6.08,-0.43,7866.706935
221, 2018-07-09 08:18:34,-98,-67,-7818,282,1094,-63,-6.18,-0.4,7818.901266
222, 2018-07-09 08:18:34,4,-81,-7914,312,508,-172,-6.22,-0.38,7914.415519
223, 2018-07-09 08:18:34,-167,42,-7781,271,425,-129,-6.24,-0.35,7782.905242
224, 2018-07-09 08:18:34,-253,-70,-7668,182,664,-99,-6.28,-0.33,7672.491968
225, 2018-07-09 08:18:34,-184,-207,-7828,208,681,-216,-6.33,-0.31,7832.897867
226, 2018-07-09 08:18:34,-36,-112,-7905,489,678,-284,-6.37,-0.28,7905.875347
227, 2018-07-09 08:18:34,-81,-208,-7849,511,631,-103,-6.41,-0.24,7852.17333
228, 2018-07-09 08:18:34,-6,-224,-7715,300,695,-78,-6.46,-0.2,7718.253494
229, 2018-07-09 08:18:34,168,-232,-7708,-225,330,-188,-6.48,-0.22,7713.320426
230, 2018-07-09 08:18:34,73,-172,-7832,-63,-339,-160,-6.44,-0.23,7834.228552
231, 2018-07-09 08:18:34,-260,-196,-7905,123,-321,-156,-6.39,-0.23,7911.702788
232, 2018-07-09 08:18:34,-259,-264,-7805,21,518,-81,-6.4,-0.23,7813.757227
233, 2018-07-09 08:18:34,-186,-219,-7715,-76,451,-36,-6.42,-0.23,7720.348567
234, 2018-07-09 08:18:34,-220,-100,-7763,-144,257,-129,-6.43,-0.25,7766.760522
235, 2018-07-09 08:18:34,-132,-140,-7715,-99,315,-140,-6.45,-0.26,7717.399109
236, 2018-07-09 08:18:34,-84,-121,-7694,-135,125,-70,-6.44,-0.27,7695.409866
237, 2018-07-09 08:18:34,-43,5,-7795,-126,27,-146,-6.43,-0.28,7795.120204
238, 2018-07-09 08:18:34,-41,-22,-7894,147,62,-84,-6.41,-0.28,7894.137128
239, 2018-07-09 08:18:34,-229,32,-7871,345,285,98,-6.42,-0.25,7874.395596
240, 2018-07-09 08:18:34,-245,-90,-7766,491,728,176,-6.46,-0.21,7770.384868
241, 2018-07-09 08:18:34,69,-186,-7686,294,778,59,-6.51,-0.18,7688.559878
242, 2018-07-09 08:18:34,13,-300,-7778,88,42,-143,-6.52,-0.17,7783.794255
243, 2018-07-09 08:18:34,-245,-280,-7787,90,8,-136,-6.5,-0.17,7795.883144
244, 2018-07-09 08:18:34,-219,-276,-7706,8,338,-129,-6.5,-0.17,7714.050363
245, 2018-07-09 08:18:34,-22,-308,-7637,-109,381,-179,-6.52,-0.18,7643.239954
246, 2018-07-09 08:18:34,2,-286,-7808,-298,-97,-173,-6.5,-0.21,7813.236461
247, 2018-07-09 08:18:34,-133,-176,-7942,-279,-112,-103,-6.48,-0.23,7945.063184
248, 2018-07-09 08:18:34,-195,-148,-7891,-128,188,-35,-6.48,-0.24,7894.796387
249, 2018-07-09 08:18:34,-127,-81,-7706,-129,342,-37,-6.49,-0.25,7707.472089
250, 2018-07-09 08:18:34,-120,18,-7665,-98,316,-12,-6.5,-0.26,7665.960409
251, 2018-07-09 08:18:35,-118,0,-7764,19,538,7,-6.54,-0.26,7764.896651
252, 2018-07-09 08:18:35,-96,24,-7824,197,254,8,-6.55,-0.25,7824.625742
253, 2018-07-09 08:18:35,-99,-16,-7829,187,287,-70,-6.55,-0.23,7829.642265
254, 2018-07-09 08:18:35,-113,-132,-7843,123,493,-167,-6.58,-0.22,7844.924601
255, 2018-07-09 08:18:35,-32,-207,-7819,163,454,-121,-6.6,-0.21,7821.805035
256, 2018-07-09 08:18:35,12,-243,-7828,231,394,-49,-6.62,-0.19,7831.779938
257, 2018-07-09 08:18:35,-25,-250,-7759,214,202,-91,-6.63,-0.18,7763.066791
258, 2018-07-09 08:18:35,8,-223,-7785,119,220,-93,-6.62,-0.17,7788.197352
259, 2018-07-09 08:18:35,-48,-241,-7775,-43,33,-106,-6.62,-0.17,7778.88231
260, 2018-07-09 08:18:35,-218,-189,-7936,-109,95,-73,-6.6,-0.19,7941.243039
261, 2018-07-09 08:18:35,-199,-199,-7763,-55,590,-91,-6.63,-0.2,7768.099575
262, 2018-07-09 08:18:35,-2,-153,-7636,-108,305,-215,-6.65,-0.21,7637.532913
263, 2018-07-09 08:18:35,-16,60,-7765,-54,83,-324,-6.64,-0.21,7765.24829
264, 2018-07-09 08:18:35,-3,-27,-7847,76,397,-218,-6.65,-0.21,7847.047024
265, 2018-07-09 08:18:35,1,-118,-7811,154,314,-67,-6.66,-0.2,7811.89132
266, 2018-07-09 08:18:35,-59,-29,-7712,217,112,39,-6.66,-0.18,7712.280208
267, 2018-07-09 08:18:35,-77,-96,-7830,288,165,47,-6.65,-0.16,7830.967054
268, 2018-07-09 08:18:35,35,-275,-7797,236,203,-29,-6.65,-0.14,7801.926621
269, 2018-07-09 08:18:35,-159,-281,-7742,25,-331,-103,-6.62,-0.13,7748.729315
270, 2018-07-09 08:18:35,-300,-324,-7905,-165,214,-120,-6.6,-0.15,7917.322843
271, 2018-07-09 08:18:35,-26,-360,-7857,-315,488,47,-6.63,-0.18,7865.286072
272, 2018-07-09 08:18:35,196,-312,-7745,-464,98,99,-6.63,-0.23,7753.759411
273, 2018-07-09 08:18:35,-71,72,-7646,-153,-756,85,-6.56,-0.26,7646.668621
274, 2018-07-09 08:18:35,-369,82,-7842,0,-1,-117,-6.51,-0.25,7851.104954
275, 2018-07-09 08:18:35,-192,-156,-7697,-303,586,-140,-6.55,-0.27,7700.974549
