No, waktu, accx, accY, accZ, gyroX, gyroY, gyroZ, roll, pitch,Akselerasi
1, 2018-07-09 08:18:37,-111,-55,-7750,159,215,-61,-6.73,-0.24,7750.990001
2, 2018-07-09 08:18:37,-104,-120,-7789,32,66,-66,-6.72,-0.23,7790.618525
3, 2018-07-09 08:18:37,-125,-158,-7855,50,120,-39,-6.71,-0.23,7857.583216
4, 2018-07-09 08:18:37,-62,-93,-7854,262,321,-52,-6.72,-0.21,7854.795287
5, 2018-07-09 08:18:37,3,-72,-7664,-71,430,-108,-6.74,-0.21,7664.338784
6, 2018-07-09 08:18:37,-101,-161,-7687,-271,-229,-73,-6.72,-0.23,7689.349192
7, 2018-07-09 08:18:37,-251,-162,-7964,-66,19,-51,-6.68,-0.25,7969.601057
8, 2018-07-09 08:18:37,-85,-142,-7770,123,416,-34,-6.7,-0.25,7771.762284
9, 2018-07-09 08:18:37,-30,-32,-7762,26,192,-44,-6.7,-0.24,7762.123936
10, 2018-07-09 08:18:37,-71,-33,-7773,45,293,-67,-6.71,-0.24,7773.394304
11, 2018-07-09 08:18:37,-110,-75,-7763,30,100,-85,-6.71,-0.23,7764.141549
12, 2018-07-09 08:18:37,-96,-103,-7781,48,190,-93,-6.7,-0.23,7782.273832
13, 2018-07-09 08:18:37,-26,-100,-7732,66,240,-75,-6.7,-0.23,7732.690347
14, 2018-07-09 08:18:37,-80,-76,-7819,-86,-52,-96,-6.69,-0.23,7819.778577
15, 2018-07-09 08:18:37,-81,-90,-7818,-62,-130,-138,-6.66,-0.24,7818.937588
16, 2018-07-09 08:18:37,-186,-168,-7823,-34,-165,-99,-6.63,-0.25,7827.014054
17, 2018-07-09 08:18:37,-254,-108,-7813,25,129,-29,-6.61,-0.25,7817.873688
18, 2018-07-09 08:18:37,-155,-48,-7754,138,362,-37,-6.63,-0.24,7755.697583
19, 2018-07-09 08:18:37,-74,-34,-7810,41,104,-24,-6.63,-0.23,7810.424572
20, 2018-07-09 08:18:37,-128,-71,-7814,-56,31,-39,-6.61,-0.23,7815.370817
21, 2018-07-09 08:18:37,-201,-69,-7784,49,148,-70,-6.61,-0.23,7786.90041
22, 2018-07-09 08:18:37,-163,-140,-7770,49,221,-110,-6.61,-0.23,7772.97041
23, 2018-07-09 08:18:37,-135,-123,-7785,-26,120,-88,-6.61,-0.23,7787.141902
24, 2018-07-09 08:18:37,-163,-34,-7778,102,167,-32,-6.6,-0.23,7779.782066
25, 2018-07-09 08:18:37,-174,-9,-7803,114,304,-61,-6.61,-0.22,7804.944971
26, 2018-07-09 08:18:37,-121,-108,-7795,123,304,-91,-6.62,-0.21,7796.687117
27, 2018-07-09 08:18:37,-156,-124,-7863,84,177,-67,-6.63,-0.2,7865.524839
28, 2018-07-09 08:18:37,-213,-96,-7835,155,407,-33,-6.64,-0.19,7838.482634
29, 2018-07-09 08:18:37,-138,-86,-7676,92,276,-49,-6.65,-0.18,7677.722058
30, 2018-07-09 08:18:37,-87,-59,-7757,-13,281,-71,-6.66,-0.18,7757.712227
31, 2018-07-09 08:18:37,-123,-63,-7760,70,155,-73,-6.66,-0.18,7761.230444
32, 2018-07-09 08:18:37,-191,-101,-7826,131,191,-67,-6.66,-0.17,7828.981926
33, 2018-07-09 08:18:38,-157,-109,-7740,59,282,-79,-6.67,-0.16,7742.359459
34, 2018-07-09 08:18:38,-159,-114,-7694,13,210,-85,-6.67,-0.16,7696.487056
35, 2018-07-09 08:18:38,-173,-96,-7814,7,196,-110,-6.67,-0.17,7816.504398
36, 2018-07-09 08:18:38,-153,-109,-7760,112,269,-69,-6.68,-0.16,7762.273507
37, 2018-07-09 08:18:38,-127,-97,-7722,12,274,-69,-6.69,-0.16,7723.65341
38, 2018-07-09 08:18:38,-111,-99,-7736,-22,223,-90,-6.69,-0.16,7737.429677
39, 2018-07-09 08:18:38,-115,-110,-7795,-38,117,-75,-6.69,-0.16,7796.62427
40, 2018-07-09 08:18:38,-190,-89,-7765,38,118,-70,-6.68,-0.16,7767.834061
41, 2018-07-09 08:18:38,-153,-91,-7753,0,201,-92,-6.68,-0.16,7755.043456
42, 2018-07-09 08:18:38,-166,-23,-7801,17,159,-52,-6.68,-0.17,7802.799882
43, 2018-07-09 08:18:38,-174,-33,-7764,90,231,-82,-6.68,-0.16,7766.019637
44, 2018-07-09 08:18:38,-187,-166,-7783,-49,219,-73,-6.69,-0.16,7787.015731
45, 2018-07-09 08:18:38,-159,-119,-7805,-161,214,-71,-6.69,-0.17,7807.526305
46, 2018-07-09 08:18:38,-108,-73,-7737,-48,313,-107,-6.7,-0.18,7738.098087
47, 2018-07-09 08:18:38,-115,-121,-7804,65,35,-105,-6.69,-0.18,7805.785162
48, 2018-07-09 08:18:38,-242,-74,-7862,-29,241,-65,-6.69,-0.18,7866.071701
49, 2018-07-09 08:18:38,-185,-41,-7702,-35,325,-67,-6.7,-0.18,7704.3306
50, 2018-07-09 08:18:38,-85,-16,-7779,-26,265,-82,-6.71,-0.19,7779.480831
51, 2018-07-09 08:18:38,-111,-60,-7780,49,221,-64,-6.71,-0.18,7781.023133
52, 2018-07-09 08:18:38,-190,-68,-7771,13,92,-77,-6.71,-0.18,7773.619813
53, 2018-07-09 08:18:38,-172,-56,-7815,36,215,-95,-6.71,-0.18,7817.09313
54, 2018-07-09 08:18:38,-165,-69,-7755,75,225,-116,-6.71,-0.18,7757.062008
55, 2018-07-09 08:18:38,-186,-100,-7783,22,222,-94,-6.72,-0.17,7785.864435
56, 2018-07-09 08:18:38,-135,-101,-7809,14,297,-84,-6.72,-0.17,7810.819867
57, 2018-07-09 08:18:38,-155,-114,-7777,-23,245,-104,-6.73,-0.18,7779.379795
58, 2018-07-09 08:18:38,-135,-30,-7756,-9,162,-90,-6.73,-0.18,7757.232818
59, 2018-07-09 08:18:38,-156,-49,-7761,17,171,-70,-6.73,-0.18,7762.722332
60, 2018-07-09 08:18:38,-151,-28,-7768,-11,125,-68,-6.72,-0.18,7769.517939
61, 2018-07-09 08:18:38,-174,-36,-7786,7,117,-79,-6.72,-0.18,7788.027221
62, 2018-07-09 08:18:38,-169,-66,-7800,32,187,-93,-6.72,-0.18,7802.109779
63, 2018-07-09 08:18:38,-191,-67,-7719,-6,174,-111,-6.72,-0.18,7721.653385
64, 2018-07-09 08:18:38,-204,-65,-7774,-55,82,-94,-6.71,-0.18,7776.947795
65, 2018-07-09 08:18:38,-188,-37,-7855,60,161,-45,-6.71,-0.18,7857.336572
66, 2018-07-09 08:18:38,-142,-50,-7862,159,254,-78,-6.71,-0.17,7863.441231
67, 2018-07-09 08:18:39,-134,-88,-7769,47,281,-82,-6.72,-0.16,7770.653833
68, 2018-07-09 08:18:39,-186,-99,-7791,18,167,-66,-6.72,-0.16,7793.848728
69, 2018-07-09 08:18:39,-246,-77,-7843,75,306,-93,-6.73,-0.16,7847.2348
70, 2018-07-09 08:18:39,-174,-94,-7707,73,321,-96,-6.75,-0.15,7709.537016
71, 2018-07-09 08:18:39,-117,-37,-7724,7,189,-83,-6.75,-0.15,7724.974693
72, 2018-07-09 08:18:39,-177,-61,-7768,-2,85,-90,-6.74,-0.15,7770.255723
73, 2018-07-09 08:18:39,-228,-67,-7812,16,156,-106,-6.74,-0.15,7815.613668
74, 2018-07-09 08:18:39,-174,-67,-7768,55,243,-83,-6.74,-0.15,7770.237384
75, 2018-07-09 08:18:39,-179,-69,-7743,10,205,-89,-6.74,-0.15,7745.376104
76, 2018-07-09 08:18:39,-191,-81,-7770,-42,120,-95,-6.74,-0.15,7772.769262
77, 2018-07-09 08:18:39,-179,-64,-7811,23,149,-73,-6.74,-0.15,7813.31287
78, 2018-07-09 08:18:39,-205,-80,-7804,9,161,-86,-6.74,-0.15,7807.101959
79, 2018-07-09 08:18:39,-192,-51,-7785,1,254,-51,-6.74,-0.15,7787.53427
80, 2018-07-09 08:18:39,-187,-60,-7777,28,167,-67,-6.74,-0.15,7779.479288
81, 2018-07-09 08:18:39,-218,-34,-7781,-18,171,-100,-6.74,-0.15,7784.127504
82, 2018-07-09 08:18:39,-183,-43,-7759,6,152,-105,-6.74,-0.15,7761.276892
83, 2018-07-09 08:18:39,-220,-38,-7799,20,124,-100,-6.74,-0.15,7802.194883
84, 2018-07-09 08:18:39,-227,-23,-7814,32,173,-92,-6.74,-0.15,7817.330363
85, 2018-07-09 08:18:39,-193,-68,-7804,27,148,-62,-6.73,-0.14,7806.68233
86, 2018-07-09 08:18:39,-223,-96,-7796,25,98,-73,-6.73,-0.14,7799.779548
87, 2018-07-09 08:18:39,-214,-69,-7851,71,242,-96,-6.73,-0.14,7854.219121
88, 2018-07-09 08:18:39,-191,-54,-7780,39,308,-93,-6.74,-0.14,7782.531529
89, 2018-07-09 08:18:39,-209,-74,-7773,71,122,-40,-6.74,-0.13,7776.161392
90, 2018-07-09 08:18:39,-278,-28,-7842,64,303,-61,-6.75,-0.13,7846.975978
91, 2018-07-09 08:18:39,-202,-74,-7706,89,372,-72,-6.77,-0.12,7709.00227
92, 2018-07-09 08:18:39,-128,-49,-7787,29,192,-57,-6.77,-0.12,7788.206084
93, 2018-07-09 08:18:39,-193,-20,-7778,30,190,-74,-6.77,-0.11,7780.419847
94, 2018-07-09 08:18:39,-237,-40,-7854,80,131,-87,-6.77,-0.11,7857.67682
95, 2018-07-09 08:18:39,-219,-66,-7801,85,295,-72,-6.78,-0.1,7804.352504
96, 2018-07-09 08:18:39,-202,-52,-7749,22,287,-80,-6.79,-0.1,7751.806822
97, 2018-07-09 08:18:40,-228,-56,-7820,-15,227,-63,-6.79,-0.1,7823.523503
98, 2018-07-09 08:18:40,-192,-130,-7839,28,338,-43,-6.81,-0.1,7842.428514
99, 2018-07-09 08:18:40,-217,-125,-7723,51,360,-5,-6.82,-0.1,7727.059143
100, 2018-07-09 08:18:40,-195,-20,-7761,35,240,15,-6.83,-0.09,7763.475124
101, 2018-07-09 08:18:40,-194,-17,-7797,104,361,-56,-6.84,-0.09,7799.431646
102, 2018-07-09 08:18:40,-160,-29,-7779,120,361,-50,-6.86,-0.08,7780.699326
103, 2018-07-09 08:18:40,-176,-50,-7760,46,316,-44,-6.87,-0.07,7762.156659
104, 2018-07-09 08:18:40,-189,-64,-7719,-30,293,-142,-6.88,-0.07,7721.578725
105, 2018-07-09 08:18:40,-153,-54,-7733,29,318,-116,-6.9,-0.07,7734.701933
106, 2018-07-09 08:18:40,-164,-64,-7760,-45,125,-92,-6.9,-0.07,7761.99665
107, 2018-07-09 08:18:40,-219,-63,-7827,-129,52,-46,-6.88,-0.09,7830.31666
108, 2018-07-09 08:18:40,-196,-15,-7868,40,253,-10,-6.88,-0.09,7870.455196
109, 2018-07-09 08:18:40,-147,-28,-7793,109,407,-38,-6.9,-0.08,7794.436606
110, 2018-07-09 08:18:40,-171,-90,-7795,111,270,-33,-6.91,-0.07,7797.394821
111, 2018-07-09 08:18:40,-238,-54,-7877,92,378,-49,-6.92,-0.06,7880.77972
112, 2018-07-09 08:18:40,-168,-85,-7688,105,498,-97,-6.96,-0.05,7690.30513
113, 2018-07-09 08:18:40,-89,-34,-7741,44,308,-91,-6.97,-0.05,7741.586272
114, 2018-07-09 08:18:40,-148,-11,-7760,28,174,-82,-6.97,-0.05,7761.419007
115, 2018-07-09 08:18:40,-189,-36,-7866,94,220,-79,-6.97,-0.04,7868.352623
116, 2018-07-09 08:18:40,-196,-76,-7816,79,297,-48,-6.98,-0.03,7818.82651
117, 2018-07-09 08:18:40,-179,-69,-7716,105,344,-68,-7,-0.03,7718.384416
118, 2018-07-09 08:18:40,-180,-85,-7775,24,268,-83,-7.01,-0.02,7777.547814
119, 2018-07-09 08:18:40,-150,-110,-7782,55,307,-73,-7.01,-0.02,7784.222761
120, 2018-07-09 08:18:40,-144,-65,-7738,37,248,-63,-7.02,-0.02,7739.612716
121, 2018-07-09 08:18:40,-116,-43,-7740,7,217,-84,-7.02,-0.02,7740.988632
122, 2018-07-09 08:18:40,-156,-80,-7772,6,163,-96,-7.02,-0.02,7773.977103
123, 2018-07-09 08:18:40,-165,-78,-7834,-5,177,-77,-7.02,-0.02,7836.125637
124, 2018-07-09 08:18:40,-169,-52,-7763,67,240,-65,-7.02,-0.02,7765.013458
125, 2018-07-09 08:18:40,-146,-50,-7755,53,272,-101,-7.03,-0.01,7756.535373
126, 2018-07-09 08:18:40,-144,-57,-7765,13,186,-96,-7.03,-0.01,7766.544277
127, 2018-07-09 08:18:40,-151,-59,-7761,-18,164,-102,-7.03,-0.01,7762.693025
128, 2018-07-09 08:18:41,-128,-60,-7781,20,142,-106,-7.02,-0.02,7782.284048
129, 2018-07-09 08:18:41,-150,-79,-7789,0,212,-114,-7.02,-0.02,7790.844755
130, 2018-07-09 08:18:41,-152,-87,-7777,52,169,-98,-7.02,-0.01,7778.971783
131, 2018-07-09 08:18:41,-217,-45,-7889,-5,242,-94,-7.02,-0.01,7892.112201
132, 2018-07-09 08:18:41,-152,-49,-7742,58,477,-99,-7.04,-0.01,7743.647009
133, 2018-07-09 08:18:41,-91,-71,-7730,32,132,-97,-7.04,-0.01,7730.86166
134, 2018-07-09 08:18:41,-108,-65,-7776,-21,238,-116,-7.05,-0.01,7777.021602
135, 2018-07-09 08:18:41,-136,-84,-7819,-16,92,-92,-7.04,-0.01,7820.633798
136, 2018-07-09 08:18:41,-178,-40,-7821,66,93,-70,-7.03,-0.01,7823.127572
137, 2018-07-09 08:18:41,-177,-48,-7725,54,274,-107,-7.03,-0.01,7727.176587
138, 2018-07-09 08:18:41,-169,-81,-7748,-37,159,-87,-7.04,-0.01,7750.266189
139, 2018-07-09 08:18:41,-180,-48,-7824,-42,82,-92,-7.03,-0.02,7826.217477
140, 2018-07-09 08:18:41,-180,-88,-7785,19,172,-102,-7.02,-0.02,7787.577865
141, 2018-07-09 08:18:41,-153,-48,-7775,-17,203,-75,-7.02,-0.02,7776.653393
142, 2018-07-09 08:18:41,-134,-25,-7775,13,133,-76,-7.02,-0.02,7776.194828
143, 2018-07-09 08:18:41,-177,-13,-7740,8,101,-88,-7.01,-0.02,7742.034487
144, 2018-07-09 08:18:41,-231,-44,-7754,2,142,-72,-7,-0.02,7757.564889
145, 2018-07-09 08:18:41,-205,-67,-7810,6,197,-79,-7.01,-0.02,7812.977281
146, 2018-07-09 08:18:41,-171,-40,-7768,1,178,-88,-7.01,-0.02,7769.984878
147, 2018-07-09 08:18:41,-207,-39,-7762,-28,131,-95,-7,-0.02,7764.857629
148, 2018-07-09 08:18:41,-206,-45,-7764,-59,130,-79,-7,-0.03,7766.862751
149, 2018-07-09 08:18:41,-182,-6,-7830,26,98,-82,-6.99,-0.03,7832.117211
150, 2018-07-09 08:18:41,-185,-24,-7831,36,242,-78,-6.99,-0.03,7833.221687
151, 2018-07-09 08:18:41,-167,-62,-7752,40,192,-100,-6.99,-0.02,7754.046492
152, 2018-07-09 08:18:41,-216,2,-7874,33,110,-90,-6.99,-0.02,7876.962359
153, 2018-07-09 08:18:41,-262,-8,-7732,87,354,-82,-7,-0.01,7736.441818
154, 2018-07-09 08:18:41,-139,-30,-7729,7,268,-97,-7.01,-0.01,7730.308015
155, 2018-07-09 08:18:41,-152,-31,-7812,-2,182,-93,-7.01,-0.01,7813.540107
156, 2018-07-09 08:18:41,-210,-40,-7782,10,81,-101,-7,-0.01,7784.935709
157, 2018-07-09 08:18:41,-238,-63,-7834,36,219,-85,-7,-0.01,7837.867631
158, 2018-07-09 08:18:41,-203,-51,-7709,42,249,-87,-7.01,-0.01,7711.84096
159, 2018-07-09 08:18:41,-242,-12,-7754,18,180,-70,-7.01,-0.01,7757.784735
160, 2018-07-09 08:18:42,-215,-34,-7813,-7,213,-78,-7.01,-0.01,7816.031602
161, 2018-07-09 08:18:42,-211,-68,-7726,-12,179,-92,-7.01,-0.01,7729.17984
162, 2018-07-09 08:18:42,-207,-62,-7800,-9,148,-71,-7.01,-0.01,7802.992567
163, 2018-07-09 08:18:42,-193,1,-7782,32,169,-79,-7.01,-0.01,7784.392976
164, 2018-07-09 08:18:42,-198,-24,-7783,20,117,-84,-7,-0.01,7785.55515
165, 2018-07-09 08:18:42,-217,-45,-7818,14,129,-69,-7,-0.01,7821.140454
166, 2018-07-09 08:18:42,-241,-43,-7746,-15,179,-76,-7,-0.01,7749.867483
167, 2018-07-09 08:18:42,-240,-36,-7803,8,237,-83,-7,-0.01,7806.773021
168, 2018-07-09 08:18:42,-210,-25,-7771,88,193,-55,-7,-0.01,7773.877154
169, 2018-07-09 08:18:42,-235,-22,-7781,36,123,-80,-7,0,7784.578987
170, 2018-07-09 08:18:42,-255,-77,-7792,37,204,-85,-7,0,7796.551674
171, 2018-07-09 08:18:42,-210,-16,-7817,73,350,-94,-7.01,0,7819.836635
172, 2018-07-09 08:18:42,-163,-46,-7751,114,290,-75,-7.02,0.01,7752.850186
173, 2018-07-09 08:18:42,-272,-31,-7873,82,95,-61,-7.02,0.02,7877.758184
174, 2018-07-09 08:18:42,-326,-17,-7747,110,430,-76,-7.04,0.03,7753.874773
175, 2018-07-09 08:18:42,-157,-53,-7693,83,260,-84,-7.05,0.04,7694.784402
176, 2018-07-09 08:18:42,-168,-11,-7813,51,225,-81,-7.05,0.04,7814.813753
177, 2018-07-09 08:18:42,-218,-19,-7797,54,164,-92,-7.05,0.05,7800.070128
178, 2018-07-09 08:18:42,-231,-50,-7809,95,180,-73,-7.05,0.05,7812.575888
179, 2018-07-09 08:18:42,-228,-94,-7737,64,258,-58,-7.06,0.06,7740.929466
180, 2018-07-09 08:18:42,-257,-39,-7728,12,212,-68,-7.06,0.06,7732.370529
181, 2018-07-09 08:18:42,-225,-15,-7799,27,275,-80,-7.07,0.06,7802.259352
182, 2018-07-09 08:18:42,-220,-75,-7802,89,297,-85,-7.08,0.07,7805.461485
183, 2018-07-09 08:18:42,-183,-63,-7788,58,258,-59,-7.08,0.07,7790.404482
184, 2018-07-09 08:18:42,-209,-10,-7783,56,264,-63,-7.09,0.08,7785.812096
185, 2018-07-09 08:18:42,-200,-33,-7780,82,257,-99,-7.1,0.08,7782.640233
186, 2018-07-09 08:18:42,-212,-38,-7787,100,262,-93,-7.11,0.09,7789.977985
187, 2018-07-09 08:18:42,-239,-36,-7817,69,277,-96,-7.11,0.1,7820.735643
188, 2018-07-09 08:18:42,-211,-84,-7789,45,276,-75,-7.12,0.1,7792.310184
189, 2018-07-09 08:18:42,-234,-70,-7745,84,274,-79,-7.13,0.1,7748.850302
190, 2018-07-09 08:18:42,-207,-54,-7761,67,279,-68,-7.14,0.11,7763.947836
191, 2018-07-09 08:18:42,-176,-72,-7807,98,307,-63,-7.15,0.12,7809.315527
192, 2018-07-09 08:18:42,-171,-50,-7823,57,375,-73,-7.16,0.12,7825.028434
193, 2018-07-09 08:18:42,-163,-80,-7731,68,264,-69,-7.17,0.13,7733.131966
194, 2018-07-09 08:18:43,-254,-73,-7879,50,211,-61,-7.17,0.13,7883.431106
195, 2018-07-09 08:18:43,-252,-52,-7746,146,597,-61,-7.2,0.14,7750.272511
196, 2018-07-09 08:18:43,-136,-56,-7723,81,307,-76,-7.22,0.15,7724.400365
197, 2018-07-09 08:18:43,-146,-26,-7790,60,234,-97,-7.22,0.15,7791.411425
198, 2018-07-09 08:18:43,-188,-52,-7780,78,205,-96,-7.23,0.16,7782.44486
199, 2018-07-09 08:18:43,-196,-84,-7805,63,242,-96,-7.23,0.16,7807.912461
200, 2018-07-09 08:18:43,-199,-72,-7769,76,226,-91,-7.23,0.17,7771.881754
201, 2018-07-09 08:18:43,-200,-96,-7776,56,235,-89,-7.23,0.17,7779.163965
202, 2018-07-09 08:18:43,-207,-95,-7824,35,272,-61,-7.24,0.17,7827.314354
203, 2018-07-09 08:18:43,-194,-66,-7727,110,319,-78,-7.25,0.18,7729.716748
204, 2018-07-09 08:18:43,-154,-76,-7735,25,273,-87,-7.26,0.18,7736.906165
205, 2018-07-09 08:18:43,-129,-63,-7731,13,205,-69,-7.26,0.18,7732.33283
206, 2018-07-09 08:18:43,-177,-66,-7772,6,141,-75,-7.26,0.18,7774.295402
207, 2018-07-09 08:18:43,-185,-52,-7794,26,168,-92,-7.25,0.18,7796.368706
208, 2018-07-09 08:18:43,-215,-65,-7776,28,227,-85,-7.25,0.18,7779.243279
209, 2018-07-09 08:18:43,-185,-91,-7799,33,233,-98,-7.26,0.18,7801.724617
210, 2018-07-09 08:18:43,-176,-69,-7768,-11,197,-105,-7.26,0.18,7770.29993
211, 2018-07-09 08:18:43,-184,-55,-7854,24,164,-90,-7.26,0.17,7856.347561
212, 2018-07-09 08:18:43,-179,-82,-7780,27,228,-97,-7.26,0.18,7782.490925
213, 2018-07-09 08:18:43,-179,-73,-7775,44,198,-57,-7.26,0.18,7777.402844
214, 2018-07-09 08:18:43,-199,-58,-7869,75,176,-66,-7.26,0.18,7871.729543
215, 2018-07-09 08:18:43,-228,-91,-7730,74,474,-71,-7.28,0.19,7733.897142
216, 2018-07-09 08:18:43,-126,-90,-7727,0,216,-75,-7.29,0.19,7728.551287
217, 2018-07-09 08:18:43,-108,-57,-7779,-25,164,-115,-7.28,0.18,7779.958483
218, 2018-07-09 08:18:43,-213,-54,-7768,-3,70,-119,-7.27,0.18,7771.107321
219, 2018-07-09 08:18:43,-238,-86,-7818,-18,140,-83,-7.27,0.18,7822.094604
220, 2018-07-09 08:18:43,-201,-53,-7772,-16,189,-77,-7.26,0.17,7774.779354
221, 2018-07-09 08:18:43,-204,-36,-7737,24,219,-108,-7.27,0.17,7739.772671
222, 2018-07-09 08:18:43,-150,-37,-7808,-18,130,-91,-7.26,0.17,7809.528347
223, 2018-07-09 08:18:44,-197,-51,-7829,45,191,-90,-7.26,0.17,7831.644208
224, 2018-07-09 08:18:44,-184,-65,-7788,43,197,-81,-7.26,0.17,7790.444467
225, 2018-07-09 08:18:44,-172,-62,-7776,22,223,-90,-7.26,0.18,7778.149137
226, 2018-07-09 08:18:44,-207,-63,-7748,-2,175,-91,-7.26,0.17,7751.020707
227, 2018-07-09 08:18:44,-225,-22,-7793,47,192,-83,-7.26,0.17,7796.278471
228, 2018-07-09 08:18:44,-205,-26,-7751,32,225,-114,-7.26,0.18,7753.754059
229, 2018-07-09 08:18:44,-226,-82,-7756,-37,227,-89,-7.27,0.17,7759.725253
230, 2018-07-09 08:18:44,-210,-60,-7729,-24,155,-79,-7.26,0.17,7732.085165
231, 2018-07-09 08:18:44,-220,-42,-7824,-17,107,-99,-7.26,0.17,7827.205121
232, 2018-07-09 08:18:44,-201,-28,-7840,19,165,-74,-7.25,0.16,7842.626155
233, 2018-07-09 08:18:44,-171,-49,-7774,13,252,-94,-7.26,0.16,7776.034851
234, 2018-07-09 08:18:44,-186,-95,-7788,39,170,-87,-7.26,0.17,7790.800023
235, 2018-07-09 08:18:44,-262,-38,-7860,46,238,-73,-7.25,0.17,7864.45726
236, 2018-07-09 08:18:44,-206,-69,-7704,27,378,-96,-7.28,0.17,7707.06254
237, 2018-07-09 08:18:44,-134,-69,-7792,-20,230,-91,-7.28,0.17,7793.457577
238, 2018-07-09 08:18:44,-196,-36,-7799,7,186,-116,-7.28,0.17,7801.545552
239, 2018-07-09 08:18:44,-228,-29,-7783,4,120,-116,-7.28,0.16,7786.392875
240, 2018-07-09 08:18:44,-226,-38,-7744,29,215,-87,-7.27,0.16,7747.39027
241, 2018-07-09 08:18:44,-231,-51,-7751,18,237,-102,-7.28,0.17,7754.609146
242, 2018-07-09 08:18:44,-206,-31,-7786,-17,157,-90,-7.28,0.16,7788.786362
243, 2018-07-09 08:18:44,-213,-60,-7841,-9,159,-81,-7.28,0.16,7844.122003
244, 2018-07-09 08:18:44,-223,-56,-7768,18,167,-78,-7.27,0.16,7771.401997
245, 2018-07-09 08:18:44,-223,-65,-7774,-19,180,-79,-7.27,0.16,7777.469383
246, 2018-07-09 08:18:44,-204,-55,-7765,-3,202,-84,-7.27,0.16,7767.873969
247, 2018-07-09 08:18:44,-228,-36,-7751,-4,134,-95,-7.27,0.16,7754.436214
248, 2018-07-09 08:18:44,-218,-49,-7803,-7,144,-100,-7.26,0.15,7806.198435
249, 2018-07-09 08:18:44,-236,-30,-7778,25,208,-84,-7.27,0.15,7781.63736
250, 2018-07-09 08:18:44,-238,-36,-7772,14,209,-95,-7.27,0.15,7775.72659
