No, waktu, accx, accY, accZ, gyroX, gyroY, gyroZ, roll, pitch,Akselerasi
1, 2018-07-09 09:37:19,-1366,1645,-7611,99,81,103,-8.8,9.86,7905.650005
2, 2018-07-09 09:37:19,-1418,1494,-7617,59,175,64,-8.81,9.87,7890.592437
3, 2018-07-09 09:37:19,-1363,1505,-7654,-74,265,149,-8.84,9.87,7918.744219
4, 2018-07-09 09:37:19,-1341,1574,-7656,-194,239,224,-8.86,9.86,7930.327421
5, 2018-07-09 09:37:19,-1325,1510,-7667,-10,429,180,-8.9,9.85,7925.819453
6, 2018-07-09 09:37:19,-1256,1513,-7580,45,422,111,-8.94,9.86,7830.907036
7, 2018-07-09 09:37:19,-1364,1556,-7632,-39,-61,115,-8.95,9.86,7907.5316
8, 2018-07-09 09:37:19,-1439,1652,-7747,12,292,183,-8.96,9.86,8050.828156
9, 2018-07-09 09:37:19,-1223,1617,-7543,102,989,140,-9.04,9.87,7810.714884
10, 2018-07-09 09:37:20,-1156,1558,-7539,48,201,132,-9.08,9.88,7784.614377
11, 2018-07-09 09:37:20,-1311,1562,-7714,-82,99,135,-9.08,9.88,7978.994987
12, 2018-07-09 09:37:20,-1299,1537,-7644,-72,466,130,-9.12,9.88,7904.461145
13, 2018-07-09 09:37:20,-1258,1503,-7671,-18,206,125,-9.15,9.88,7917.437338
14, 2018-07-09 09:37:20,-1211,1575,-7712,157,313,-25,-9.17,9.89,7963.798717
15, 2018-07-09 09:37:20,-1226,1520,-7656,-21,390,-15,-9.2,9.9,7901.127261
16, 2018-07-09 09:37:20,-1287,1453,-7592,-171,11,135,-9.21,9.89,7836.200738
17, 2018-07-09 09:37:20,-1246,1573,-7699,-24,570,146,-9.24,9.88,7956.220585
18, 2018-07-09 09:37:20,-1142,1603,-7648,126,539,136,-9.3,9.9,7897.194249
19, 2018-07-09 09:37:20,-1150,1590,-7622,-7,133,126,-9.31,9.9,7870.545343
20, 2018-07-09 09:37:20,-1146,1567,-7672,-96,383,106,-9.34,9.9,7913.810018
21, 2018-07-09 09:37:20,-1165,1557,-7699,-81,346,35,-9.37,9.9,7940.78554
22, 2018-07-09 09:37:20,-1218,1647,-7574,-50,157,26,-9.38,9.89,7846.120634
23, 2018-07-09 09:37:20,-1106,1705,-7436,14,219,73,-9.4,9.9,7708.719543
24, 2018-07-09 09:37:20,-1089,1630,-7525,113,-21,101,-9.4,9.91,7776.145961
25, 2018-07-09 09:37:20,-1128,1619,-7570,220,-211,101,-9.38,9.93,7822.9435
26, 2018-07-09 09:37:20,-1125,1555,-7711,130,-411,131,-9.34,9.95,7946.26774
27, 2018-07-09 09:37:20,-1185,1444,-7731,-103,-303,100,-9.3,9.95,7953.472323
28, 2018-07-09 09:37:20,-1202,1432,-7648,-21,-93,5,-9.29,9.95,7873.203414
29, 2018-07-09 09:37:20,-1337,1432,-7715,-5,-413,-57,-9.26,9.95,7959.862939
30, 2018-07-09 09:37:20,-1341,1543,-7778,90,448,2,-9.27,9.95,8042.164758
31, 2018-07-09 09:37:20,-1083,1533,-7481,49,317,43,-9.31,9.96,7712.868403
32, 2018-07-09 09:37:20,-1132,1603,-7559,-50,-452,40,-9.28,9.96,7809.57835
33, 2018-07-09 09:37:20,-1247,1635,-7728,-23,-168,56,-9.25,9.97,7996.88802
34, 2018-07-09 09:37:20,-1175,1604,-7676,-30,-15,71,-9.25,9.97,7929.339001
35, 2018-07-09 09:37:20,-1244,1616,-7647,-98,-342,44,-9.22,9.96,7914.265664
36, 2018-07-09 09:37:20,-1267,1614,-7672,-58,-205,-36,-9.21,9.96,7941.654047
37, 2018-07-09 09:37:20,-1238,1670,-7587,20,-187,-46,-9.19,9.97,7866.6456
38, 2018-07-09 09:37:21,-1282,1664,-7649,57,-344,60,-9.16,9.98,7932.188916
39, 2018-07-09 09:37:21,-1205,1564,-7659,112,-128,124,-9.14,9.99,7909.386955
40, 2018-07-09 09:37:21,-1256,1520,-7599,110,-150,149,-9.13,10,7850.652011
41, 2018-07-09 09:37:21,-1244,1481,-7652,79,-260,140,-9.12,10,7892.654877
42, 2018-07-09 09:37:21,-1268,1493,-7674,-5,-321,92,-9.1,10.01,7920.047285
43, 2018-07-09 09:37:21,-1310,1463,-7661,-93,-154,37,-9.08,10,7908.690789
44, 2018-07-09 09:37:21,-1352,1464,-7660,-105,38,23,-9.08,9.99,7914.973152
45, 2018-07-09 09:37:21,-1306,1521,-7649,-217,51,24,-9.09,9.98,7907.355942
46, 2018-07-09 09:37:21,-1260,1688,-7746,-412,-31,64,-9.09,9.95,8027.294688
47, 2018-07-09 09:37:21,-1362,1462,-7540,-329,-295,92,-9.07,9.92,7800.262047
48, 2018-07-09 09:37:21,-1387,1520,-7520,-10,45,15,-9.06,9.91,7796.445921
49, 2018-07-09 09:37:21,-1271,1684,-7625,244,75,-18,-9.07,9.93,7911.505672
50, 2018-07-09 09:37:21,-1222,1774,-7682,141,-345,-7,-9.05,9.96,7978.313356
51, 2018-07-09 09:37:21,-1321,1596,-7634,75,-231,-9,-9.03,9.97,7910.133564
52, 2018-07-09 09:37:21,-1394,1690,-7703,-17,-364,68,-9,9.97,8008.467082
53, 2018-07-09 09:37:21,-1391,1661,-7607,160,250,7,-9,9.99,7909.50384
54, 2018-07-09 09:37:21,-1263,1420,-7577,150,186,-86,-9.03,10.01,7811.68983
55, 2018-07-09 09:37:21,-1364,1508,-7781,-89,-376,-111,-9.01,10.01,8042.295754
56, 2018-07-09 09:37:21,-1462,1678,-7825,-178,-218,-128,-8.99,10,8135.339759
57, 2018-07-09 09:37:21,-1372,1602,-7569,-401,54,-90,-9,9.97,7857.388179
58, 2018-07-09 09:37:21,-1340,1411,-7560,-83,-285,75,-8.98,9.95,7806.415375
59, 2018-07-09 09:37:21,-1318,1489,-7589,43,92,-22,-8.98,9.96,7845.200189
60, 2018-07-09 09:37:21,-1349,1639,-7570,210,-196,-11,-8.97,9.98,7861.998601
61, 2018-07-09 09:37:21,-1422,1770,-7586,260,-266,92,-8.95,10.01,7918.483441
62, 2018-07-09 09:37:21,-1383,1566,-7656,-68,250,-10,-8.96,10.02,7935.954952
63, 2018-07-09 09:37:21,-1350,1657,-7571,-302,-354,66,-8.95,10,7866.904728
64, 2018-07-09 09:37:21,-1451,1693,-7613,-97,-110,60,-8.93,9.99,7932.806502
65, 2018-07-09 09:37:21,-1395,1607,-7607,146,502,-57,-8.97,10,7899.045702
66, 2018-07-09 09:37:21,-1353,1619,-7607,16,-156,55,-8.97,10.01,7894.188939
67, 2018-07-09 09:37:21,-1476,1607,-7721,-4,-115,58,-8.96,10.01,8023.394917
68, 2018-07-09 09:37:21,-1408,1537,-7665,36,406,74,-8.99,10.02,7943.365659
69, 2018-07-09 09:37:21,-1372,1545,-7545,23,123,131,-9.01,10.02,7822.814966
70, 2018-07-09 09:37:22,-1420,1577,-7757,92,144,84,-9.02,10.03,8042.038174
71, 2018-07-09 09:37:22,-1377,1544,-7702,121,525,47,-9.06,10.04,7975.015298
72, 2018-07-09 09:37:22,-1294,1554,-7557,22,308,92,-9.1,10.05,7822.889556
73, 2018-07-09 09:37:22,-1331,1549,-7597,-46,150,92,-9.12,10.05,7866.725558
74, 2018-07-09 09:37:22,-1459,1697,-7751,-14,139,184,-9.13,10.05,8067.619909
75, 2018-07-09 09:37:22,-1384,1638,-7534,207,887,254,-9.19,10.07,7833.240453
76, 2018-07-09 09:37:22,-1230,1443,-7433,-78,452,286,-9.26,10.07,7671.025877
77, 2018-07-09 09:37:22,-1339,1472,-7842,-6,-201,138,-9.25,10.07,8090.529587
78, 2018-07-09 09:37:22,-1395,1539,-7763,61,603,63,-9.28,10.08,8036.08829
79, 2018-07-09 09:37:22,-1288,1591,-7546,-106,717,141,-9.35,10.08,7818.71735
80, 2018-07-09 09:37:22,-1233,1579,-7531,-199,370,165,-9.37,10.07,7792.91287
81, 2018-07-09 09:37:22,-1197,1552,-7556,-15,429,155,-9.4,10.07,7806.064886
82, 2018-07-09 09:37:22,-1196,1588,-7605,218,425,127,-9.42,10.08,7860.546101
83, 2018-07-09 09:37:22,-1255,1697,-7696,159,29,116,-9.43,10.1,7980.178569
84, 2018-07-09 09:37:22,-1249,1689,-7543,-58,354,217,-9.45,10.11,7830.042848
85, 2018-07-09 09:37:22,-1177,1592,-7435,-69,368,236,-9.48,10.1,7694.08981
86, 2018-07-09 09:37:22,-1210,1464,-7664,127,105,64,-9.5,10.11,7895.840171
87, 2018-07-09 09:37:22,-1264,1546,-7860,206,108,-9,-9.5,10.13,8109.710969
88, 2018-07-09 09:37:22,-1163,1627,-7723,121,364,109,-9.53,10.15,7977.745734
89, 2018-07-09 09:37:22,-1148,1553,-7637,-65,411,166,-9.55,10.15,7877.403252
90, 2018-07-09 09:37:22,-1186,1546,-7568,-168,349,220,-9.57,10.14,7814.815161
91, 2018-07-09 09:37:22,-1173,1597,-7576,-1,104,214,-9.57,10.14,7830.84376
92, 2018-07-09 09:37:22,-1197,1647,-7670,217,41,157,-9.57,10.16,7935.635954
93, 2018-07-09 09:37:22,-1142,1592,-7719,271,214,121,-9.58,10.18,7963.767262
94, 2018-07-09 09:37:22,-1142,1579,-7631,214,177,120,-9.59,10.19,7875.885093
95, 2018-07-09 09:37:22,-1125,1608,-7598,129,43,172,-9.59,10.21,7847.349425
96, 2018-07-09 09:37:22,-1144,1397,-7621,-68,154,79,-9.59,10.21,7831.984806
97, 2018-07-09 09:37:22,-1144,1402,-7646,-228,-90,42,-9.59,10.2,7857.204083
98, 2018-07-09 09:37:22,-1250,1650,-7696,-215,-309,50,-9.57,10.18,7969.530476
99, 2018-07-09 09:37:22,-1271,1672,-7616,169,358,78,-9.58,10.19,7900.283603
100, 2018-07-09 09:37:23,-1050,1525,-7432,278,43,172,-9.6,10.22,7659.161116
101, 2018-07-09 09:37:23,-1143,1556,-7629,337,-727,205,-9.54,10.25,7869.512437
102, 2018-07-09 09:37:23,-1251,1531,-7827,161,-278,195,-9.5,10.27,8072.849001
103, 2018-07-09 09:37:23,-1209,1520,-7672,-89,38,209,-9.49,10.27,7914.016995
104, 2018-07-09 09:37:23,-1166,1508,-7649,-156,-251,118,-9.47,10.26,7882.944945
105, 2018-07-09 09:37:23,-1235,1453,-7621,-97,-80,-11,-9.46,10.25,7855.95793
106, 2018-07-09 09:37:23,-1277,1488,-7680,-72,-121,-49,-9.45,10.24,7926.365687
107, 2018-07-09 09:37:23,-1293,1569,-7725,-54,-161,-49,-9.44,10.24,7988.06829
108, 2018-07-09 09:37:23,-1308,1572,-7676,-123,-130,4,-9.43,10.24,7943.741184
109, 2018-07-09 09:37:23,-1294,1603,-7659,-191,-122,82,-9.42,10.23,7931.224748
110, 2018-07-09 09:37:23,-1254,1693,-7625,-135,61,99,-9.42,10.22,7910.713621
111, 2018-07-09 09:37:23,-1184,1637,-7628,-20,-17,85,-9.42,10.22,7891.008111
112, 2018-07-09 09:37:23,-1219,1570,-7648,18,-299,98,-9.4,10.22,7902.073462
113, 2018-07-09 09:37:23,-1242,1581,-7631,229,-327,38,-9.37,10.24,7891.405832
114, 2018-07-09 09:37:23,-1248,1522,-7669,407,-402,11,-9.33,10.28,7917.546905
115, 2018-07-09 09:37:23,-1317,1670,-7596,106,-238,100,-9.3,10.3,7888.13064
116, 2018-07-09 09:37:23,-1304,1678,-7698,80,-189,113,-9.28,10.31,7985.944152
117, 2018-07-09 09:37:23,-1354,1539,-7666,127,-95,115,-9.27,10.32,7935.325639
118, 2018-07-09 09:37:23,-1337,1440,-7617,32,-88,133,-9.27,10.32,7866.37515
119, 2018-07-09 09:37:23,-1277,1549,-7692,5,-163,131,-9.26,10.34,7949.653703
120, 2018-07-09 09:37:23,-1281,1418,-7652,-52,11,25,-9.26,10.33,7887.001268
121, 2018-07-09 09:37:23,-1370,1481,-7708,-131,-232,12,-9.24,10.32,7967.654925
122, 2018-07-09 09:37:23,-1428,1622,-7748,-296,244,59,-9.25,10.3,8043.728737
123, 2018-07-09 09:37:23,-1317,1571,-7732,-199,200,160,-9.27,10.29,7999.14708
124, 2018-07-09 09:37:23,-1196,1587,-7755,134,-155,129,-9.26,10.3,8005.561192
125, 2018-07-09 09:37:23,-1253,1668,-7376,-161,349,58,-9.27,10.3,7665.351199
126, 2018-07-09 09:37:23,-1285,1490,-7287,-279,244,83,-9.29,10.28,7547.959592
127, 2018-07-09 09:37:24,-1266,1533,-7544,-234,-373,102,-9.27,10.27,7801.588364
128, 2018-07-09 09:37:24,-1311,1660,-7795,-66,-349,157,-9.23,10.26,8076.902005
129, 2018-07-09 09:37:24,-1345,1598,-7623,8,49,31,-9.23,10.26,7903.971027
130, 2018-07-09 09:37:24,-1321,1577,-7564,78,-153,-43,-9.23,10.27,7838.75411
131, 2018-07-09 09:37:24,-1439,1598,-7569,107,-426,-24,-9.19,10.28,7868.550438
132, 2018-07-09 09:37:24,-1482,1503,-7550,505,-463,49,-9.15,10.32,7839.50464
133, 2018-07-09 09:37:24,-1462,1403,-7718,690,-190,260,-9.14,10.36,7979.55995
134, 2018-07-09 09:37:24,-1287,1536,-8034,1256,-476,120,-9.12,10.45,8280.146194
135, 2018-07-09 09:37:24,-1347,1862,-7665,-111,-861,-1,-9.04,10.5,8002.104598
136, 2018-07-09 09:37:24,-1512,1361,-7349,-572,424,166,-9.04,10.45,7625.369893
137, 2018-07-09 09:37:24,-1356,1414,-7382,-129,870,154,-9.09,10.43,7637.542537
138, 2018-07-09 09:37:24,-1268,1600,-7619,0,47,23,-9.12,10.43,7887.774401
139, 2018-07-09 09:37:24,-1413,1547,-7735,-209,-169,-15,-9.11,10.42,8013.738391
140, 2018-07-09 09:37:24,-1485,1461,-7648,-424,281,116,-9.13,10.39,7926.641786
141, 2018-07-09 09:37:24,-1444,1465,-7628,-385,462,163,-9.16,10.37,7900.490175
142, 2018-07-09 09:37:24,-1358,1515,-7718,-206,270,162,-9.18,10.35,7981.661043
143, 2018-07-09 09:37:24,-1361,1622,-7713,-67,79,107,-9.19,10.34,7998.348204
144, 2018-07-09 09:37:24,-1346,1595,-7692,21,303,37,-9.21,10.35,7970.106963
145, 2018-07-09 09:37:24,-1236,1589,-7553,12,332,32,-9.24,10.35,7816.676148
146, 2018-07-09 09:37:24,-1386,1615,-7661,-130,-177,73,-9.24,10.35,7951.109482
147, 2018-07-09 09:37:24,-1464,1584,-7683,-58,458,164,-9.26,10.34,7980.027632
148, 2018-07-09 09:37:24,-1304,1546,-7611,5,707,181,-9.33,10.34,7875.141459
149, 2018-07-09 09:37:24,-1313,1586,-7553,-77,73,73,-9.35,10.34,7828.612521
150, 2018-07-09 09:37:24,-1426,1753,-7635,-203,449,76,-9.37,10.33,7962.393484
151, 2018-07-09 09:37:24,-1231,1445,-7622,-66,787,204,-9.44,10.32,7854.824632
152, 2018-07-09 09:37:24,-1210,1539,-7529,-110,-56,207,-9.46,10.31,7779.361285
153, 2018-07-09 09:37:24,-1226,1635,-7630,-84,-66,161,-9.45,10.31,7898.936701
154, 2018-07-09 09:37:24,-1306,1608,-7689,19,152,154,-9.46,10.31,7963.166518
155, 2018-07-09 09:37:24,-1359,1598,-7636,32,239,139,-9.47,10.31,7918.900239
156, 2018-07-09 09:37:25,-1263,1542,-7633,26,446,155,-9.51,10.32,7888.955698
157, 2018-07-09 09:37:25,-1235,1519,-7581,-2,283,177,-9.54,10.32,7829.696482
158, 2018-07-09 09:37:25,-1259,1585,-7616,10,151,126,-9.55,10.32,7880.40367
159, 2018-07-09 09:37:25,-1255,1606,-7760,51,84,93,-9.56,10.33,8023.20765
160, 2018-07-09 09:37:25,-1268,1641,-7691,52,429,122,-9.58,10.34,7965.688043
161, 2018-07-09 09:37:25,-1190,1626,-7568,20,575,115,-9.63,10.34,7831.640952
162, 2018-07-09 09:37:25,-1199,1654,-7587,-61,189,131,-9.66,10.34,7857.218719
163, 2018-07-09 09:37:25,-1219,1607,-7634,-51,332,157,-9.68,10.34,7895.971505
164, 2018-07-09 09:37:25,-1161,1631,-7663,80,324,118,-9.71,10.35,7920.205237
165, 2018-07-09 09:37:25,-1210,1614,-7654,136,302,73,-9.73,10.36,7915.35293
166, 2018-07-09 09:37:25,-1163,1488,-7650,50,382,152,-9.76,10.37,7879.670869
167, 2018-07-09 09:37:25,-1085,1499,-7627,-94,139,183,-9.77,10.37,7848.270829
168, 2018-07-09 09:37:25,-1159,1532,-7632,-45,-15,77,-9.76,10.36,7870.052668
169, 2018-07-09 09:37:25,-1259,1577,-7768,-18,-115,66,-9.76,10.36,8025.822948
170, 2018-07-09 09:37:25,-1245,1619,-7659,195,457,114,-9.77,10.38,7926.630242
171, 2018-07-09 09:37:25,-1103,1550,-7474,119,508,132,-9.8,10.39,7712.313855
172, 2018-07-09 09:37:25,-1057,1563,-7536,-44,-343,113,-9.79,10.39,7768.623688
173, 2018-07-09 09:37:25,-1170,1628,-7626,-583,-628,93,-9.73,10.35,7885.1227
174, 2018-07-09 09:37:25,-1248,1413,-7705,-315,-422,192,-9.68,10.31,7932.282017
175, 2018-07-09 09:37:25,-1187,1700,-7636,294,28,31,-9.66,10.33,7912.487915
176, 2018-07-09 09:37:25,-1145,1758,-7530,463,-193,-56,-9.66,10.37,7816.808108
177, 2018-07-09 09:37:25,-1237,1607,-7798,55,-459,-57,-9.61,10.4,8057.383074
178, 2018-07-09 09:37:25,-1256,1708,-7729,-61,94,14,-9.6,10.39,8014.501918
179, 2018-07-09 09:37:25,-1208,1634,-7554,-8,120,28,-9.61,10.39,7822.540252
180, 2018-07-09 09:37:25,-1182,1520,-7547,119,-87,42,-9.61,10.4,7788.756833
181, 2018-07-09 09:37:25,-1172,1588,-7565,118,-337,46,-9.58,10.42,7818.219299
182, 2018-07-09 09:37:25,-1245,1613,-7611,55,-438,39,-9.53,10.43,7879.03008
183, 2018-07-09 09:37:25,-1256,1506,-7593,76,-319,36,-9.5,10.43,7842.143903
184, 2018-07-09 09:37:25,-1326,1509,-7516,139,-451,55,-9.47,10.44,7779.820885
185, 2018-07-09 09:37:25,-1329,1569,-7660,76,-435,90,-9.43,10.45,7931.179105
186, 2018-07-09 09:37:25,-1356,1705,-7815,21,-266,75,-9.41,10.46,8112.951744
187, 2018-07-09 09:37:26,-1317,1643,-7936,-258,-447,85,-9.39,10.45,8210.604972
188, 2018-07-09 09:37:26,-1341,1491,-7872,-482,-717,110,-9.35,10.42,8123.40729
189, 2018-07-09 09:37:26,-1354,1573,-7593,30,136,52,-9.33,10.4,7871.549657
190, 2018-07-09 09:37:26,-1203,1633,-7321,378,482,-34,-9.38,10.44,7596.771617
191, 2018-07-09 09:37:26,-1201,1510,-7512,230,-259,-86,-9.37,10.46,7755.813626
192, 2018-07-09 09:37:26,-1384,1608,-7798,83,-520,-107,-9.32,10.47,8081.455562
193, 2018-07-09 09:37:26,-1468,1764,-7614,-28,-287,-16,-9.29,10.47,7952.340284
194, 2018-07-09 09:37:26,-1439,1656,-7498,1,176,10,-9.29,10.48,7812.365903
195, 2018-07-09 09:37:26,-1333,1515,-7646,261,352,1,-9.33,10.5,7907.808167
196, 2018-07-09 09:37:26,-1282,1518,-7713,-10,-252,28,-9.32,10.51,7964.811172
197, 2018-07-09 09:37:26,-1369,1532,-7691,-152,-327,41,-9.29,10.49,7960.69507
198, 2018-07-09 09:37:26,-1427,1573,-7582,-60,-52,32,-9.28,10.49,7873.841629
199, 2018-07-09 09:37:26,-1397,1645,-7624,35,250,-28,-9.3,10.49,7923.573058
200, 2018-07-09 09:37:26,-1323,1505,-7633,193,280,-110,-9.33,10.51,7891.643872
201, 2018-07-09 09:37:26,-1361,1595,-7643,27,-139,-66,-9.33,10.52,7925.389265
202, 2018-07-09 09:37:26,-1416,1636,-7566,0,-123,-61,-9.32,10.52,7869.301621
203, 2018-07-09 09:37:26,-1431,1561,-7662,19,184,10,-9.33,10.52,7949.259462
204, 2018-07-09 09:37:26,-1316,1476,-7675,-60,-16,117,-9.34,10.52,7925.658143
205, 2018-07-09 09:37:26,-1372,1512,-7639,-61,-295,128,-9.32,10.51,7907.139116
206, 2018-07-09 09:37:26,-1395,1616,-7666,104,54,59,-9.32,10.52,7957.702998
207, 2018-07-09 09:37:26,-1353,1543,-7626,76,30,69,-9.33,10.53,7897.299159
208, 2018-07-09 09:37:26,-1390,1551,-7638,-59,-47,113,-9.32,10.53,7916.864594
209, 2018-07-09 09:37:26,-1403,1583,-7606,-5,54,95,-9.33,10.53,7894.652241
210, 2018-07-09 09:37:26,-1383,1598,-7590,95,114,75,-9.34,10.54,7878.730418
211, 2018-07-09 09:37:26,-1385,1558,-7638,82,7,80,-9.35,10.55,7917.362755
212, 2018-07-09 09:37:26,-1439,1581,-7706,-66,-2,161,-9.35,10.55,7997.044329
213, 2018-07-09 09:37:26,-1376,1571,-7644,-24,74,155,-9.35,10.55,7924.149986
214, 2018-07-09 09:37:26,-1346,1559,-7642,-55,-42,103,-9.35,10.55,7914.692729
215, 2018-07-09 09:37:26,-1344,1516,-7618,-124,-64,101,-9.35,10.54,7882.798742
216, 2018-07-09 09:37:26,-1518,1686,-7711,-211,-115,95,-9.34,10.52,8037.813198
217, 2018-07-09 09:37:26,-1475,1581,-7638,35,642,136,-9.38,10.52,7938.150288
218, 2018-07-09 09:37:26,-1254,1452,-7527,92,411,132,-9.43,10.53,7767.660459
219, 2018-07-09 09:37:26,-1330,1573,-7700,-159,-422,158,-9.41,10.52,7970.773425
220, 2018-07-09 09:37:27,-1451,1633,-7701,-130,-48,156,-9.4,10.51,8004.841722
221, 2018-07-09 09:37:27,-1350,1540,-7595,95,560,128,-9.44,10.52,7866.264997
222, 2018-07-09 09:37:27,-1318,1487,-7568,89,28,155,-9.46,10.53,7824.507461
223, 2018-07-09 09:37:27,-1356,1628,-7682,-31,-161,128,-9.45,10.53,7968.829525
224, 2018-07-09 09:37:27,-1396,1699,-7736,-117,110,116,-9.45,10.53,8042.456901
225, 2018-07-09 09:37:27,-1404,1536,-7613,15,401,128,-9.48,10.52,7892.292506
226, 2018-07-09 09:37:27,-1367,1547,-7595,38,400,167,-9.51,10.53,7870.573232
227, 2018-07-09 09:37:27,-1272,1594,-7607,75,261,184,-9.53,10.53,7875.612294
228, 2018-07-09 09:37:27,-1306,1579,-7588,28,100,134,-9.55,10.54,7859.810494
229, 2018-07-09 09:37:27,-1328,1602,-7677,-19,127,134,-9.55,10.54,7954.012635
230, 2018-07-09 09:37:27,-1317,1614,-7679,-3,418,110,-9.58,10.54,7956.539826
231, 2018-07-09 09:37:27,-1314,1590,-7613,-10,347,104,-9.62,10.54,7887.487876
232, 2018-07-09 09:37:27,-1307,1607,-7646,12,323,101,-9.65,10.55,7921.61688
233, 2018-07-09 09:37:27,-1304,1594,-7577,23,261,130,-9.67,10.55,7851.890282
234, 2018-07-09 09:37:27,-1285,1599,-7625,0,197,134,-9.69,10.55,7896.116197
235, 2018-07-09 09:37:27,-1272,1647,-7680,-12,270,121,-9.71,10.55,7956.946211
236, 2018-07-09 09:37:27,-1243,1585,-7661,-1,406,120,-9.74,10.56,7921.375827
237, 2018-07-09 09:37:27,-1213,1578,-7614,-10,303,120,-9.77,10.56,7869.844281
238, 2018-07-09 09:37:27,-1196,1564,-7578,8,162,93,-9.78,10.56,7829.597435
239, 2018-07-09 09:37:27,-1364,1634,-7778,-106,-200,110,-9.77,10.55,8063.977679
240, 2018-07-09 09:37:27,-1334,1664,-7678,75,736,131,-9.8,10.56,7968.697259
241, 2018-07-09 09:37:27,-1094,1550,-7521,167,694,123,-9.88,10.57,7756.595709
242, 2018-07-09 09:37:27,-1148,1598,-7593,21,-55,93,-9.88,10.58,7843.797358
243, 2018-07-09 09:37:27,-1208,1633,-7699,-31,194,102,-9.88,10.58,7962.446483
244, 2018-07-09 09:37:27,-1161,1538,-7587,-27,321,106,-9.91,10.58,7827.894608
245, 2018-07-09 09:37:27,-1201,1618,-7560,-53,44,111,-9.92,10.58,7823.932835
246, 2018-07-09 09:37:28,-1178,1609,-7630,57,44,69,-9.92,10.58,7886.283345
247, 2018-07-09 09:37:28,-1189,1564,-7658,77,-114,55,-9.9,10.59,7905.996522
248, 2018-07-09 09:37:28,-1222,1594,-7625,14,20,97,-9.9,10.6,7885.096385
249, 2018-07-09 09:37:28,-1172,1580,-7607,-38,106,128,-9.9,10.59,7857.253528
250, 2018-07-09 09:37:28,-1131,1581,-7614,30,-36,88,-9.9,10.6,7858.226136
