No, waktu, accx, accY, accZ, gyroX, gyroY, gyroZ, roll, pitch,Akselerasi
1, 2018-07-09 09:34:30,-396,1605,-7823,33,-188,173,5.49,9.93,7995.759501
2, 2018-07-09 09:34:30,-418,1601,-7750,156,-290,131,5.49,9.94,7924.671917
3, 2018-07-09 09:34:30,-411,1559,-7663,33,-379,164,5.5,9.95,7830.770779
4, 2018-07-09 09:34:31,-400,1404,-7750,-187,-155,133,5.5,9.94,7886.299259
5, 2018-07-09 09:34:31,-433,1525,-7806,-123,-126,176,5.48,9.92,7965.346822
6, 2018-07-09 09:34:31,-431,1543,-7821,84,-245,202,5.48,9.93,7983.398462
7, 2018-07-09 09:34:31,-375,1465,-7806,89,-170,171,5.47,9.94,7951.131115
8, 2018-07-09 09:34:31,-390,1464,-7778,44,-215,212,5.46,9.95,7924.183239
9, 2018-07-09 09:34:31,-380,1555,-7762,366,-269,280,5.46,9.97,7925.343463
10, 2018-07-09 09:34:31,-311,1554,-7805,570,-441,303,5.47,10.02,7964.274104
11, 2018-07-09 09:34:31,-354,1588,-7740,692,-431,369,5.49,10.09,7909.150397
12, 2018-07-09 09:34:31,-415,1567,-7827,800,-460,445,5.51,10.16,7993.099712
13, 2018-07-09 09:34:31,-454,1401,-7747,561,-372,408,5.52,10.22,7885.741944
14, 2018-07-09 09:34:31,-455,1329,-7803,401,-212,231,5.51,10.26,7928.434587
15, 2018-07-09 09:34:31,-410,1315,-7806,299,-216,175,5.5,10.29,7926.598325
16, 2018-07-09 09:34:31,-424,1279,-7743,100,-285,-16,5.51,10.3,7859.368041
17, 2018-07-09 09:34:31,-437,1269,-7831,9,-201,-17,5.5,10.3,7945.180363
18, 2018-07-09 09:34:31,-491,1335,-7807,81,-163,85,5.49,10.3,7935.524872
19, 2018-07-09 09:34:31,-441,1282,-7784,141,-39,94,5.47,10.31,7901.180988
20, 2018-07-09 09:34:31,-395,1355,-7796,52,-131,81,5.45,10.31,7922.730969
21, 2018-07-09 09:34:31,-409,1387,-7798,-5,-278,43,5.45,10.31,7930.942819
22, 2018-07-09 09:34:31,-403,1421,-7788,-15,-116,101,5.44,10.31,7926.827486
23, 2018-07-09 09:34:31,-371,1435,-7770,14,-168,64,5.43,10.31,7910.105309
24, 2018-07-09 09:34:31,-404,1446,-7746,-9,-213,50,5.42,10.31,7890.161469
25, 2018-07-09 09:34:31,-394,1469,-7789,17,-266,43,5.42,10.31,7936.102192
26, 2018-07-09 09:34:31,-440,1407,-7806,91,-213,60,5.42,10.32,7943.984202
27, 2018-07-09 09:34:31,-463,1389,-7784,10,-97,112,5.4,10.32,7920.501626
28, 2018-07-09 09:34:31,-386,1406,-7770,81,-146,117,5.39,10.32,7905.613955
29, 2018-07-09 09:34:31,-399,1375,-7852,151,-275,63,5.39,10.33,7981.461646
30, 2018-07-09 09:34:31,-438,1330,-7826,35,-215,126,5.38,10.34,7950.284272
31, 2018-07-09 09:34:31,-409,1344,-7806,20,-163,147,5.37,10.33,7931.409269
32, 2018-07-09 09:34:31,-362,1404,-7767,5,-144,96,5.36,10.33,7901.1739
33, 2018-07-09 09:34:31,-409,1366,-7784,-41,-246,70,5.36,10.33,7913.525952
34, 2018-07-09 09:34:31,-432,1341,-7790,122,-180,155,5.35,10.33,7916.375749
35, 2018-07-09 09:34:31,-360,1364,-7868,48,-214,21,5.35,10.34,7993.467333
36, 2018-07-09 09:34:31,-365,1442,-7813,-18,-280,-99,5.35,10.34,7953.336281
37, 2018-07-09 09:34:32,-449,1453,-7867,-114,-412,-112,5.35,10.33,8012.646192
38, 2018-07-09 09:34:32,-489,1403,-7759,-65,-224,41,5.35,10.33,7899.97538
39, 2018-07-09 09:34:32,-419,1404,-7708,182,143,142,5.32,10.33,7846.020711
40, 2018-07-09 09:34:32,-319,1355,-7813,220,-158,51,5.3,10.35,7936.04152
41, 2018-07-09 09:34:32,-398,1366,-7784,-14,-285,80,5.31,10.36,7912.965057
42, 2018-07-09 09:34:32,-401,1345,-7814,7,-151,130,5.3,10.35,7939.044149
43, 2018-07-09 09:34:32,-397,1373,-7747,122,-145,111,5.29,10.36,7877.737429
44, 2018-07-09 09:34:32,-401,1328,-7765,159,-30,20,5.27,10.37,7887.940796
45, 2018-07-09 09:34:32,-440,1292,-7791,-91,-15,89,5.24,10.37,7909.648854
46, 2018-07-09 09:34:32,-429,1367,-7793,-57,-140,103,5.23,10.35,7923.608963
47, 2018-07-09 09:34:32,-391,1386,-7793,182,-228,67,5.22,10.36,7924.943281
48, 2018-07-09 09:34:32,-382,1414,-7737,205,-303,99,5.23,10.38,7874.419915
49, 2018-07-09 09:34:32,-361,1445,-7776,-32,-191,4,5.22,10.38,7917.355745
50, 2018-07-09 09:34:32,-330,1444,-7811,-51,-185,-21,5.22,10.38,7950.20484
51, 2018-07-09 09:34:32,-382,1437,-7838,25,-186,61,5.21,10.38,7977.790233
52, 2018-07-09 09:34:32,-386,1425,-7829,115,-186,76,5.2,10.38,7966.985754
53, 2018-07-09 09:34:32,-434,1343,-7800,114,-209,115,5.2,10.39,7926.664179
54, 2018-07-09 09:34:32,-399,1335,-7768,47,-83,152,5.19,10.4,7891.973771
55, 2018-07-09 09:34:32,-368,1343,-7763,150,-185,74,5.17,10.4,7886.903195
56, 2018-07-09 09:34:32,-373,1266,-7824,72,-137,40,5.17,10.41,7934.535966
57, 2018-07-09 09:34:32,-407,1353,-7865,-3,-247,44,5.16,10.41,7990.900012
58, 2018-07-09 09:34:32,-433,1327,-7781,20,-176,92,5.16,10.41,7905.212141
59, 2018-07-09 09:34:32,-370,1379,-7763,214,12,116,5.14,10.42,7893.206573
60, 2018-07-09 09:34:32,-345,1362,-7813,129,-125,39,5.12,10.43,7938.327154
61, 2018-07-09 09:34:32,-375,1391,-7819,-48,-269,6,5.12,10.43,7950.614253
62, 2018-07-09 09:34:32,-354,1382,-7754,26,-180,60,5.12,10.42,7884.145864
63, 2018-07-09 09:34:32,-358,1411,-7804,96,-146,49,5.11,10.43,7938.608253
64, 2018-07-09 09:34:32,-364,1344,-7804,121,-170,31,5.1,10.44,7927.247189
65, 2018-07-09 09:34:32,-396,1363,-7835,-25,-207,64,5.09,10.44,7962.525353
66, 2018-07-09 09:34:32,-416,1311,-7791,48,-228,76,5.09,10.44,7911.476348
67, 2018-07-09 09:34:32,-406,1326,-7810,104,-128,139,5.08,10.44,7932.163135
68, 2018-07-09 09:34:33,-353,1351,-7759,84,-155,96,5.07,10.45,7883.647062
69, 2018-07-09 09:34:33,-342,1369,-7827,53,-214,38,5.07,10.45,7953.178861
70, 2018-07-09 09:34:33,-355,1352,-7818,52,-204,59,5.06,10.45,7941.980421
71, 2018-07-09 09:34:33,-347,1331,-7778,20,-175,46,5.06,10.45,7898.686853
72, 2018-07-09 09:34:33,-370,1357,-7799,-26,-209,46,5.05,10.45,7924.81861
73, 2018-07-09 09:34:33,-397,1364,-7778,36,-211,77,5.05,10.45,7906.667376
74, 2018-07-09 09:34:33,-382,1365,-7769,99,-130,67,5.04,10.45,7897.246989
75, 2018-07-09 09:34:33,-401,1356,-7827,58,-177,78,5.03,10.46,7953.707689
76, 2018-07-09 09:34:33,-332,1356,-7817,17,-192,120,5.03,10.45,7940.683157
77, 2018-07-09 09:34:33,-356,1330,-7801,43,-242,62,5.03,10.46,7921.567837
78, 2018-07-09 09:34:33,-372,1350,-7840,118,-122,62,5.02,10.46,7964.074585
79, 2018-07-09 09:34:33,-426,1363,-7856,4,-254,59,5.01,10.46,7984.734247
80, 2018-07-09 09:34:33,-422,1331,-7741,-7,-52,69,5,10.46,7865.921815
81, 2018-07-09 09:34:33,-290,1323,-7811,106,-58,27,4.98,10.46,7927.55637
82, 2018-07-09 09:34:33,-325,1346,-7850,35,-289,8,4.98,10.46,7971.18818
83, 2018-07-09 09:34:33,-360,1332,-7800,-2,-188,59,4.98,10.46,7921.099924
84, 2018-07-09 09:34:33,-329,1330,-7786,44,-197,60,4.97,10.46,7905.62692
85, 2018-07-09 09:34:33,-396,1418,-7818,-18,-238,120,4.97,10.46,7955.417274
86, 2018-07-09 09:34:33,-374,1339,-7808,40,-243,99,4.97,10.46,7930.804562
87, 2018-07-09 09:34:33,-398,1368,-7814,22,-253,124,4.97,10.46,7942.822168
88, 2018-07-09 09:34:33,-399,1329,-7767,47,-205,126,4.97,10.46,7889.976616
89, 2018-07-09 09:34:33,-359,1361,-7768,23,-145,148,4.96,10.46,7894.493397
90, 2018-07-09 09:34:33,-321,1393,-7846,87,-229,82,4.96,10.46,7975.161817
91, 2018-07-09 09:34:33,-335,1332,-7847,83,-273,105,4.96,10.47,7966.295124
92, 2018-07-09 09:34:33,-360,1353,-7796,26,-203,118,4.96,10.47,7920.721242
93, 2018-07-09 09:34:33,-337,1310,-7820,35,-240,55,4.96,10.47,7936.124306
94, 2018-07-09 09:34:33,-351,1299,-7813,10,-218,42,4.95,10.46,7928.024407
95, 2018-07-09 09:34:33,-382,1342,-7784,-19,-194,52,4.95,10.46,7908.068285
96, 2018-07-09 09:34:33,-397,1322,-7795,90,-200,26,4.95,10.46,7916.269197
97, 2018-07-09 09:34:33,-394,1330,-7824,15,-162,109,4.94,10.46,7946.012333
98, 2018-07-09 09:34:33,-352,1350,-7807,-16,-168,128,4.93,10.46,7930.677966
99, 2018-07-09 09:34:33,-300,1372,-7825,3,-187,88,4.93,10.46,7950.032013
100, 2018-07-09 09:34:33,-341,1355,-7782,73,-104,52,4.92,10.46,7906.44231
101, 2018-07-09 09:34:33,-364,1336,-7869,9,-166,20,4.91,10.46,7989.903191
102, 2018-07-09 09:34:33,-337,1351,-7759,-37,-140,-6,4.9,10.45,7882.946847
103, 2018-07-09 09:34:33,-350,1412,-7763,164,73,160,4.88,10.46,7898.127183
104, 2018-07-09 09:34:34,-287,1347,-7821,244,-266,30,4.87,10.48,7941.336097
105, 2018-07-09 09:34:34,-336,1368,-7793,-34,-261,25,4.88,10.48,7919.29094
106, 2018-07-09 09:34:34,-364,1377,-7774,-84,-205,17,4.87,10.47,7903.398067
107, 2018-07-09 09:34:34,-359,1395,-7807,-15,-203,31,4.87,10.46,7938.775409
108, 2018-07-09 09:34:34,-371,1391,-7777,62,-193,69,4.87,10.47,7909.124541
109, 2018-07-09 09:34:34,-350,1342,-7830,59,-251,82,4.86,10.47,7951.878017
110, 2018-07-09 09:34:34,-396,1322,-7787,65,-218,128,4.86,10.47,7908.341735
111, 2018-07-09 09:34:34,-367,1373,-7767,92,-133,190,4.85,10.48,7895.955104
112, 2018-07-09 09:34:34,-318,1305,-7799,70,-154,120,4.85,10.48,7913.82019
113, 2018-07-09 09:34:34,-317,1268,-7814,3,-26,22,4.83,10.48,7922.556974
114, 2018-07-09 09:34:34,-307,1300,-7878,41,-152,-27,4.82,10.47,7990.440101
115, 2018-07-09 09:34:34,-337,1223,-7819,60,-166,93,4.82,10.48,7921.241001
116, 2018-07-09 09:34:34,-228,950,-7783,53,-191,-102,4.81,10.47,7844.07885
117, 2018-07-09 09:34:34,-401,1415,-7859,-156,-130,90,4.8,10.46,7995.430382
118, 2018-07-09 09:34:34,-372,1481,-7782,-35,-262,113,4.8,10.45,7930.401566
119, 2018-07-09 09:34:34,-434,1364,-7766,87,-304,104,4.81,10.46,7896.809989
120, 2018-07-09 09:34:34,-356,1413,-7736,44,-167,165,4.8,10.46,7872.039189
121, 2018-07-09 09:34:34,-296,1471,-7763,27,-171,108,4.8,10.46,7906.682364
122, 2018-07-09 09:34:34,-281,1417,-7788,31,-262,19,4.8,10.46,7920.845536
123, 2018-07-09 09:34:34,-319,1392,-7780,70,-129,58,4.79,10.47,7909.982617
124, 2018-07-09 09:34:34,-377,1396,-7865,130,-335,52,4.79,10.47,7996.822494
125, 2018-07-09 09:34:34,-384,1324,-7776,95,-239,104,4.8,10.48,7897.253193
126, 2018-07-09 09:34:34,-326,1257,-7779,184,64,112,4.78,10.49,7886.644787
127, 2018-07-09 09:34:34,-289,1236,-7839,-12,-44,-8,4.75,10.49,7941.104331
128, 2018-07-09 09:34:34,-298,1180,-7866,21,-204,-13,4.75,10.48,7959.595467
129, 2018-07-09 09:34:35,-371,1245,-7835,139,-312,134,4.75,10.49,7941.970222
130, 2018-07-09 09:34:35,-340,1341,-7780,-99,-301,81,4.76,10.48,7902.042837
131, 2018-07-09 09:34:35,-363,1373,-7757,-97,-292,-13,4.77,10.47,7885.933489
132, 2018-07-09 09:34:35,-407,1406,-7791,-85,-238,73,4.77,10.46,7927.305091
133, 2018-07-09 09:34:35,-356,1423,-7763,47,-284,114,4.77,10.46,7900.369232
134, 2018-07-09 09:34:35,-331,1413,-7796,47,-265,133,4.77,10.46,7929.927238
135, 2018-07-09 09:34:35,-307,1411,-7834,-11,-334,175,4.78,10.46,7965.97301
136, 2018-07-09 09:34:35,-336,1384,-7827,172,-309,172,4.79,10.47,7955.518902
137, 2018-07-09 09:34:35,-317,1290,-7786,147,-188,198,4.79,10.48,7898.505238
138, 2018-07-09 09:34:35,-366,1302,-7815,-1,-262,122,4.79,10.48,7931.165425
139, 2018-07-09 09:34:35,-357,1270,-7832,-16,-260,43,4.79,10.47,7942.327933
140, 2018-07-09 09:34:35,-351,1261,-7825,31,-187,45,4.79,10.47,7933.72214
141, 2018-07-09 09:34:35,-354,1290,-7828,81,-166,32,4.78,10.47,7941.473415
142, 2018-07-09 09:34:35,-378,1263,-7767,-18,-146,44,4.77,10.47,7878.092536
143, 2018-07-09 09:34:35,-332,1337,-7814,-93,-126,3,4.76,10.46,7934.506223
144, 2018-07-09 09:34:35,-318,1417,-7909,202,-128,-49,4.75,10.47,8041.224658
145, 2018-07-09 09:34:35,-315,1381,-7727,320,-265,15,4.75,10.49,7855.756806
146, 2018-07-09 09:34:35,-336,1375,-7756,152,-43,20,4.74,10.51,7884.101534
147, 2018-07-09 09:34:35,-348,1380,-7854,43,-288,35,4.74,10.51,7981.905787
148, 2018-07-09 09:34:35,-402,1339,-7747,-32,-255,104,4.74,10.51,7872.136559
149, 2018-07-09 09:34:35,-385,1336,-7748,185,-128,140,4.74,10.51,7871.761239
150, 2018-07-09 09:34:35,-310,1299,-7852,61,-210,65,4.73,10.52,7964.760197
151, 2018-07-09 09:34:35,-372,1228,-7822,-51,-249,53,4.73,10.51,7926.540986
152, 2018-07-09 09:34:35,-300,1245,-7818,-135,-168,161,4.73,10.5,7922.193446
153, 2018-07-09 09:34:35,-301,1338,-7831,-152,-384,81,4.74,10.48,7950.182765
154, 2018-07-09 09:34:35,-353,1283,-7768,-68,-454,52,4.76,10.47,7881.149789
155, 2018-07-09 09:34:35,-402,1342,-7827,-102,-264,84,4.76,10.46,7951.383339
156, 2018-07-09 09:34:35,-374,1367,-7783,-14,-234,64,4.76,10.45,7910.983125
157, 2018-07-09 09:34:35,-377,1366,-7753,3,-226,60,4.76,10.45,7881.439843
158, 2018-07-09 09:34:35,-324,1386,-7785,-12,-229,53,4.76,10.44,7914.050606
159, 2018-07-09 09:34:35,-334,1370,-7798,73,-178,43,4.76,10.45,7924.472222
160, 2018-07-09 09:34:35,-363,1330,-7837,107,-167,84,4.75,10.45,7957.338625
161, 2018-07-09 09:34:35,-367,1353,-7825,91,-242,88,4.75,10.46,7949.586341
162, 2018-07-09 09:34:35,-339,1322,-7812,-2,-222,62,4.75,10.46,7930.318342
163, 2018-07-09 09:34:35,-382,1327,-7783,8,-130,57,4.74,10.45,7904.55198
164, 2018-07-09 09:34:35,-355,1305,-7789,92,-216,72,4.74,10.46,7905.540525
165, 2018-07-09 09:34:35,-373,1316,-7798,20,-207,99,4.73,10.46,7917.05684
166, 2018-07-09 09:34:36,-367,1318,-7796,-10,-217,127,4.73,10.45,7915.139228
167, 2018-07-09 09:34:36,-326,1321,-7830,21,-153,135,4.72,10.45,7947.340247
168, 2018-07-09 09:34:36,-334,1328,-7811,-33,-240,90,4.72,10.44,7930.123643
169, 2018-07-09 09:34:36,-371,1357,-7819,66,-205,98,4.72,10.45,7944.548508
170, 2018-07-09 09:34:36,-421,1395,-7841,24,-364,55,4.73,10.45,7975.24589
171, 2018-07-09 09:34:36,-415,1366,-7744,34,-164,99,4.73,10.45,7874.497889
172, 2018-07-09 09:34:36,-340,1393,-7765,89,-54,76,4.71,10.45,7896.28229
173, 2018-07-09 09:34:36,-313,1356,-7874,58,-289,12,4.71,10.45,7996.03533
174, 2018-07-09 09:34:36,-348,1315,-7800,57,-198,77,4.71,10.46,7917.722463
175, 2018-07-09 09:34:36,-349,1309,-7787,-16,-190,118,4.71,10.45,7903.964259
176, 2018-07-09 09:34:36,-359,1321,-7791,5,-229,60,4.7,10.45,7910.347843
177, 2018-07-09 09:34:36,-382,1327,-7833,159,-234,45,4.7,10.45,7953.787903
178, 2018-07-09 09:34:36,-404,1303,-7821,18,-260,32,4.7,10.46,7939.084708
179, 2018-07-09 09:34:36,-374,1327,-7766,-46,-198,96,4.7,10.45,7887.43057
180, 2018-07-09 09:34:36,-349,1365,-7778,1,-147,99,4.7,10.45,7904.575257
181, 2018-07-09 09:34:36,-308,1383,-7810,109,-244,21,4.69,10.45,7937.484047
182, 2018-07-09 09:34:36,-352,1318,-7816,85,-249,49,4.7,10.46,7934.159313
183, 2018-07-09 09:34:36,-327,1337,-7782,-23,-119,120,4.69,10.45,7902.785711
184, 2018-07-09 09:34:36,-352,1315,-7823,39,-225,97,4.69,10.45,7940.557789
185, 2018-07-09 09:34:36,-387,1319,-7821,37,-266,81,4.69,10.45,7940.879737
186, 2018-07-09 09:34:36,-377,1296,-7778,12,-179,110,4.69,10.45,7894.240242
187, 2018-07-09 09:34:36,-353,1340,-7789,59,-173,52,4.68,10.45,7911.303938
188, 2018-07-09 09:34:36,-391,1308,-7836,41,-198,73,4.68,10.45,7954.033002
189, 2018-07-09 09:34:36,-364,1419,-7777,14,-206,73,4.67,10.45,7913.77192
190, 2018-07-09 09:34:36,-300,1367,-7799,60,-246,48,4.67,10.45,7923.578106
191, 2018-07-09 09:34:36,-326,1379,-7795,24,-233,40,4.67,10.46,7922.748387
