No, id_percobaan, id_pasien, waktu, accx, accY, accZ, gyroX, gyroY, gyroZ, roll, pitch
454,3,2, 2018-07-09 08:35:42,-7851,1236,-356,-855,-291,-85,-52.16,-30.97
455,3,2, 2018-07-09 08:35:42,-7870,1313,-342,-1079,-195,-181,-52.19,-30.95
456,3,2, 2018-07-09 08:35:42,-7890,1030,-326,-1575,-118,-361,-52.23,-30.96
457,3,2, 2018-07-09 08:35:42,-7803,1071,-403,-1602,-322,-445,-52.26,-30.98
458,3,2, 2018-07-09 08:35:42,-7773,1283,-253,-1502,-562,-409,-52.26,-31
459,3,2, 2018-07-09 08:35:42,-7921,1408,-224,-1633,-652,-367,-52.27,-31.01
460,3,2, 2018-07-09 08:35:42,-7971,1358,-216,-1419,-348,-473,-52.29,-31.02
461,3,2, 2018-07-09 08:35:42,-7804,1350,-212,-1258,-390,-417,-52.31,-31.02
462,3,2, 2018-07-09 08:35:42,-7881,1247,-302,-1331,-733,-442,-52.31,-31.02
463,3,2, 2018-07-09 08:35:42,-7858,1292,-228,-1125,-604,-360,-52.31,-31.01
464,3,2, 2018-07-09 08:35:42,-7795,1367,-146,-717,-419,-108,-52.33,-30.98
465,3,2, 2018-07-09 08:35:42,-7834,1481,-145,-395,-420,-140,-52.34,-30.92
466,3,2, 2018-07-09 08:35:42,-7864,1436,-232,54,-475,-137,-52.35,-30.84
467,3,2, 2018-07-09 08:35:42,-7719,1561,298,797,-673,210,-52.36,-30.67
468,3,2, 2018-07-09 08:35:42,-7452,1076,695,841,-1087,166,-52.33,-30.54
469,3,2, 2018-07-09 08:35:42,-7580,924,243,-280,-823,226,-52.27,-30.4
470,3,2, 2018-07-09 08:35:42,-6954,-523,1928,-5359,247,-21,-52.32,-30.65
471,3,2, 2018-07-09 08:35:42,-7143,-2825,1540,-9183,-1493,-1459,-52.26,-31.15
472,3,2, 2018-07-09 08:35:42,-7589,-990,-1208,-11302,-1399,2787,-52.21,-31.77
473,3,2, 2018-07-09 08:35:42,-8192,3006,-4723,-5219,-570,270,-52.25,-32.09
474,3,2, 2018-07-09 08:35:42,-8192,3288,-1031,-3223,-575,-1486,-52.31,-32.17
475,3,2, 2018-07-09 08:35:42,-8192,1553,-1560,-3047,1791,-3481,-52.45,-32.29
476,3,2, 2018-07-09 08:35:42,-6801,1325,-793,-387,187,-3033,-52.51,-32.26
477,3,2, 2018-07-09 08:35:42,-6327,2182,-1437,647,115,-2166,-52.5,-32.15
478,3,2, 2018-07-09 08:35:42,-6667,1584,-1152,1530,-123,-1484,-52.49,-31.97
479,3,2, 2018-07-09 08:35:42,-7214,693,-1490,1677,-241,-1276,-52.49,-31.8
480,3,2, 2018-07-09 08:35:42,-8046,1199,-1718,1832,919,-1051,-52.58,-31.61
481,3,2, 2018-07-09 08:35:42,-7742,1076,-1363,1923,688,-886,-52.67,-31.41
482,3,2, 2018-07-09 08:35:42,-7535,915,-2072,2638,1141,-1046,-52.76,-31.19
483,3,2, 2018-07-09 08:35:42,-7911,1465,-2346,5010,1099,-1066,-52.87,-30.83
484,3,2, 2018-07-09 08:35:42,-7743,1348,-1671,5691,1373,-1290,-52.99,-30.4
485,3,2, 2018-07-09 08:35:42,-6762,932,-1201,4718,406,-1471,-53.03,-30.03
486,3,2, 2018-07-09 08:35:43,-6315,85,-1431,5688,-612,-780,-53.01,-29.63
487,3,2, 2018-07-09 08:35:43,-6913,-144,-1280,5286,-1682,-356,-52.92,-29.24
488,3,2, 2018-07-09 08:35:43,-7190,-231,-525,4347,-1547,-44,-52.83,-28.91
489,3,2, 2018-07-09 08:35:43,-7937,-269,-735,4214,-2205,458,-52.75,-28.6
490,3,2, 2018-07-09 08:35:43,-8192,-403,-1909,3618,-2012,1059,-52.69,-28.31
491,3,2, 2018-07-09 08:35:43,-8192,-458,-2046,3437,-1155,1835,-52.68,-28.05
492,3,2, 2018-07-09 08:35:43,-8192,385,-2229,3555,-1580,1556,-52.67,-27.78
493,3,2, 2018-07-09 08:35:43,-8192,917,-2195,3656,-701,1313,-52.68,-27.49
494,3,2, 2018-07-09 08:35:43,-8192,-2193,-73,3066,-1247,-337,-52.74,-27.27
495,3,2, 2018-07-09 08:35:43,-8192,-1200,-1610,-2021,2851,-1406,-52.8,-27.24
496,3,2, 2018-07-09 08:35:43,-8192,-1069,-90,-5173,5885,-1079,-53.24,-27.53
497,3,2, 2018-07-09 08:35:43,-5909,1197,526,-210,-988,1464,-53.26,-27.53
498,3,2, 2018-07-09 08:35:43,-4391,1754,1615,28,-550,2185,-53.17,-27.44
499,3,2, 2018-07-09 08:35:43,-6464,-103,3826,115,-2009,921,-53.1,-27.35
500,3,2, 2018-07-09 08:35:43,-8192,1379,-347,-3491,4495,-2179,-53.31,-27.43
501,3,2, 2018-07-09 08:35:43,-8192,1236,-139,-5636,4100,-1048,-53.67,-27.71
502,3,2, 2018-07-09 08:35:43,-7739,725,562,-3561,3829,1162,-53.95,-27.88
503,3,2, 2018-07-09 08:35:43,-6693,235,90,-2595,3072,1448,-54.15,-27.99
504,3,2, 2018-07-09 08:35:43,-5718,536,-357,-3467,439,1276,-54.31,-28.19
505,3,2, 2018-07-09 08:35:43,-6010,674,-150,-3913,-848,1581,-54.25,-28.36
506,3,2, 2018-07-09 08:35:43,-7190,454,-826,-4230,-755,1738,-54.21,-28.54
507,3,2, 2018-07-09 08:35:43,-7236,1477,-1148,-3479,712,1578,-54.25,-28.69
508,3,2, 2018-07-09 08:35:43,-7226,1589,-701,-3363,964,781,-54.33,-28.82
509,3,2, 2018-07-09 08:35:43,-6821,1882,-900,-3040,-365,-128,-54.34,-28.98
510,3,2, 2018-07-09 08:35:43,-6448,1550,-422,-2837,-2227,288,-54.23,-29.07
511,3,2, 2018-07-09 08:35:43,-6755,614,-711,-2626,-3200,364,-54.02,-29.16
512,3,2, 2018-07-09 08:35:43,-8192,1050,-1501,-3357,-786,676,-54,-29.28
513,3,2, 2018-07-09 08:35:43,-8192,1208,-1616,-3329,1994,254,-54.16,-29.42
514,3,2, 2018-07-09 08:35:43,-8192,1884,-1707,-2379,3246,-97,-54.41,-29.49
515,3,2, 2018-07-09 08:35:43,-8032,2067,-2335,-2173,2850,-155,-54.66,-29.54
516,3,2, 2018-07-09 08:35:43,-7737,1713,-3205,-2424,1685,-404,-54.81,-29.59
517,3,2, 2018-07-09 08:35:43,-8192,1273,-1061,-2506,372,-841,-54.94,-29.68
518,3,2, 2018-07-09 08:35:43,-8192,2992,-155,-4074,-5205,2941,-54.77,-29.8
519,3,2, 2018-07-09 08:35:43,-8192,4092,-861,4691,-1783,6517,-54.67,-29.55
520,3,2, 2018-07-09 08:35:43,-8192,2542,2750,4740,1573,4382,-54.78,-29.14
521,3,2, 2018-07-09 08:35:43,-6672,-463,2488,191,3068,828,-54.97,-29
522,3,2, 2018-07-09 08:35:43,-6616,-2933,1755,-4197,1442,-3372,-55.08,-29.2
523,3,2, 2018-07-09 08:35:43,-7064,-1548,627,-2070,573,870,-55.13,-29.35
524,3,2, 2018-07-09 08:35:44,-8192,4258,-1106,1787,-2131,337,-55.17,-29.13
525,3,2, 2018-07-09 08:35:44,-8102,3723,-121,3303,-181,-1981,-55.21,-28.83
526,3,2, 2018-07-09 08:35:44,-5889,891,704,3544,587,-3972,-55.23,-28.38
527,3,2, 2018-07-09 08:35:44,-6147,-252,47,2866,-1369,-3160,-55.18,-28
528,3,2, 2018-07-09 08:35:44,-7344,458,-105,3823,-1593,-1863,-55.07,-27.72
529,3,2, 2018-07-09 08:35:44,-6673,899,-13,4127,-1024,-1545,-55.01,-27.41
530,3,2, 2018-07-09 08:35:44,-6411,356,-58,3529,-3494,-1468,-54.83,-27.12
531,3,2, 2018-07-09 08:35:44,-7047,151,-937,3729,-6015,-1336,-54.48,-26.84
532,3,2, 2018-07-09 08:35:44,-7959,-87,-375,2552,-4336,-637,-54.22,-26.61
533,3,2, 2018-07-09 08:35:44,-8088,-403,22,1196,-3369,240,-54.06,-26.47
534,3,2, 2018-07-09 08:35:44,-7973,-102,-780,-112,-2264,324,-53.95,-26.41
535,3,2, 2018-07-09 08:35:44,-8192,1283,-1003,1905,-1549,1168,-53.91,-26.21
536,3,2, 2018-07-09 08:35:44,-8192,1737,-1078,2256,-155,1309,-53.95,-25.99
537,3,2, 2018-07-09 08:35:44,-8192,-117,-1461,632,1104,994,-54.08,-25.88
538,3,2, 2018-07-09 08:35:44,-8192,-367,-1758,173,1641,1039,-54.34,-25.81
539,3,2, 2018-07-09 08:35:44,-8192,1164,-3288,1404,1233,1276,-54.48,-25.68
540,3,2, 2018-07-09 08:35:44,-8192,1643,-1636,2727,1707,1448,-54.66,-25.44
541,3,2, 2018-07-09 08:35:44,-8192,48,928,4302,-5426,-535,-54.49,-25.14
542,3,2, 2018-07-09 08:35:44,-8192,-807,2226,-446,1345,-2544,-54.54,-25.08
543,3,2, 2018-07-09 08:35:44,-6848,731,3645,-352,5456,-1518,-54.9,-25.05
544,3,2, 2018-07-09 08:35:44,-4684,1827,3161,1199,4413,-180,-55.16,-24.94
545,3,2, 2018-07-09 08:35:44,-6403,2429,2353,1927,-3131,681,-55.05,-24.72
546,3,2, 2018-07-09 08:35:44,-8192,1679,-3668,-704,1112,-2487,-55.01,-24.66
547,3,2, 2018-07-09 08:35:44,-8192,-586,-734,-3959,5337,-271,-55.5,-24.85
548,3,2, 2018-07-09 08:35:44,-6708,-1226,1593,-3566,5357,1316,-55.84,-25.04
549,3,2, 2018-07-09 08:35:44,-5557,-180,964,-3310,3113,2362,-56.03,-25.19
550,3,2, 2018-07-09 08:35:44,-5891,902,142,-4989,945,1791,-56.1,-25.41
551,3,2, 2018-07-09 08:35:44,-7359,500,-719,-6054,1212,470,-56.15,-25.7
552,3,2, 2018-07-09 08:35:44,-6776,1554,145,-5883,200,438,-56.21,-26.13
553,3,2, 2018-07-09 08:35:44,-7409,1785,-975,-5697,2215,308,-56.33,-26.41
554,3,2, 2018-07-09 08:35:44,-7457,2180,-1511,-5225,1723,-661,-56.53,-26.63
555,3,2, 2018-07-09 08:35:44,-7025,2136,-1462,-2869,-330,-1072,-56.52,-26.74
556,3,2, 2018-07-09 08:35:44,-6691,1800,-1158,-2274,-4056,-96,-56.33,-26.79
557,3,2, 2018-07-09 08:35:44,-7376,748,-1902,-2397,-4183,-1337,-56.08,-26.88
558,3,2, 2018-07-09 08:35:44,-8192,1217,-1930,-3597,-1954,-1001,-55.99,-27
559,3,2, 2018-07-09 08:35:44,-8192,1062,-2054,-3898,648,-354,-56.07,-27.19
560,3,2, 2018-07-09 08:35:44,-8192,2305,-1611,-411,1602,483,-56.23,-27.17
561,3,2, 2018-07-09 08:35:44,-8124,2986,-2776,-915,2456,384,-56.42,-27.1
562,3,2, 2018-07-09 08:35:44,-8177,970,-3133,-2512,3247,-113,-56.65,-27.18
563,3,2, 2018-07-09 08:35:44,-8192,686,-181,-6347,-5003,2104,-56.63,-27.55
564,3,2, 2018-07-09 08:35:45,-8192,3321,-230,1961,-1456,5254,-56.52,-27.45
565,3,2, 2018-07-09 08:35:45,-8192,1980,2830,60,-410,4424,-56.53,-27.32
566,3,2, 2018-07-09 08:35:45,-7090,-1145,4370,-4313,5664,-152,-56.85,-27.47
567,3,2, 2018-07-09 08:35:45,-6874,-2616,2355,-7313,1352,-3213,-57.01,-27.87
568,3,2, 2018-07-09 08:35:45,-8192,-512,-2340,-4316,2119,3383,-57.13,-28.15
569,3,2, 2018-07-09 08:35:45,-8192,4163,-519,2569,-2574,266,-57.12,-27.95
570,3,2, 2018-07-09 08:35:45,-6818,4490,486,2044,-5376,-1995,-56.8,-27.68
571,3,2, 2018-07-09 08:35:45,-5827,2514,910,3921,273,-4375,-56.78,-27.37
572,3,2, 2018-07-09 08:35:45,-5962,-282,155,2405,513,-3788,-56.79,-26.97
573,3,2, 2018-07-09 08:35:45,-6641,-260,-933,2358,-4965,-2097,-56.5,-26.79
574,3,2, 2018-07-09 08:35:45,-6975,719,-514,3831,-2771,-1415,-56.31,-26.51
575,3,2, 2018-07-09 08:35:45,-7395,480,-536,2899,-1096,-1620,-56.24,-26.25
576,3,2, 2018-07-09 08:35:45,-7219,-404,-911,1197,-609,-1837,-56.22,-26.11
577,3,2, 2018-07-09 08:35:45,-6643,-379,-1015,89,-879,-1304,-56.17,-26.04
578,3,2, 2018-07-09 08:35:45,-6599,202,-697,-1241,-2348,-756,-56.03,-26.05
579,3,2, 2018-07-09 08:35:45,-7320,451,-1307,-1203,-1872,-377,-55.92,-26.07
580,3,2, 2018-07-09 08:35:45,-8192,868,-1703,1231,-936,116,-55.9,-25.98
581,3,2, 2018-07-09 08:35:45,-8192,1628,-1183,2325,52,746,-55.96,-25.76
582,3,2, 2018-07-09 08:35:45,-8192,418,-1009,6,612,1039,-56.06,-25.66
583,3,2, 2018-07-09 08:35:45,-8192,-896,-1595,-523,806,287,-56.18,-25.66
584,3,2, 2018-07-09 08:35:45,-8192,1755,-3676,611,781,633,-56.3,-25.52
585,3,2, 2018-07-09 08:35:45,-8192,1529,-2228,662,1500,702,-56.48,-25.41
586,3,2, 2018-07-09 08:35:45,-8192,445,-770,3609,-7226,-1592,-56.22,-25.16
587,3,2, 2018-07-09 08:35:45,-8192,-315,873,-1426,878,-2498,-56.19,-25.15
588,3,2, 2018-07-09 08:35:45,-7673,277,2051,-408,2452,-955,-56.42,-25.15
589,3,2, 2018-07-09 08:35:45,-3724,2196,2156,4608,1311,1438,-56.51,-24.76
590,3,2, 2018-07-09 08:35:45,-4476,1086,2971,5201,-2260,2021,-56.38,-24.36
591,3,2, 2018-07-09 08:35:45,-8192,46,1536,1865,-6704,-185,-56.04,-24.15
592,3,2, 2018-07-09 08:35:45,-8192,172,-894,-3624,11891,-1666,-56.66,-24.24
593,3,2, 2018-07-09 08:35:45,-7339,-55,669,-2439,4725,1446,-57.16,-24.48
594,3,2, 2018-07-09 08:35:45,-5793,549,421,-736,2231,3067,-57.31,-24.49
595,3,2, 2018-07-09 08:35:45,-5837,1505,-56,-1473,-707,2501,-57.28,-24.49
596,3,2, 2018-07-09 08:35:45,-5927,1610,449,-2329,-2240,2224,-57.13,-24.54
597,3,2, 2018-07-09 08:35:45,-7419,787,-287,-3732,-951,1574,-57.06,-24.72
598,3,2, 2018-07-09 08:35:45,-7445,1282,-493,-2830,328,1075,-57.08,-24.83
599,3,2, 2018-07-09 08:35:45,-7350,1397,-833,-1690,1577,-32,-57.18,-24.88
600,3,2, 2018-07-09 08:35:45,-6825,1584,-394,-1626,1287,-914,-57.27,-24.9
601,3,2, 2018-07-09 08:35:45,-7136,1576,-823,-1745,-3438,-8,-57.08,-24.93
602,3,2, 2018-07-09 08:35:45,-8192,1407,-1774,-1769,-3159,-392,-56.92,-24.97
603,3,2, 2018-07-09 08:35:45,-8192,1084,-1873,-1288,-1019,-1366,-56.9,-24.99
604,3,2, 2018-07-09 08:35:45,-8192,1575,-2199,-1117,422,-741,-56.97,-24.99
605,3,2, 2018-07-09 08:35:46,-8192,1709,-2027,-1592,1026,181,-57.09,-25.01
606,3,2, 2018-07-09 08:35:46,-7984,2375,-2026,-1455,1575,966,-57.24,-25.02
607,3,2, 2018-07-09 08:35:46,-8192,1786,-1652,-2747,2163,723,-57.43,-25.08
608,3,2, 2018-07-09 08:35:46,-8192,1916,-1187,-3256,-1586,2075,-57.43,-25.21
609,3,2, 2018-07-09 08:35:46,-8192,3422,196,4283,-3810,6423,-57.32,-24.94
610,3,2, 2018-07-09 08:35:46,-8192,1244,1764,4202,-3272,5381,-57.15,-24.57
611,3,2, 2018-07-09 08:35:46,-6503,-1347,4181,-1304,4863,-183,-57.39,-24.52
612,3,2, 2018-07-09 08:35:46,-5086,-1992,2455,-6253,3689,-4623,-57.62,-24.84
613,3,2, 2018-07-09 08:35:46,-5645,-344,-1127,-2774,4666,1456,-57.8,-25.04
614,3,2, 2018-07-09 08:35:46,-8192,3171,-2272,-555,-3687,-44,-57.75,-25.05
615,3,2, 2018-07-09 08:35:46,-8192,2550,143,2825,-3741,-763,-57.61,-24.81
616,3,2, 2018-07-09 08:35:46,-6456,1443,1134,1706,-1865,-2652,-57.44,-24.62
617,3,2, 2018-07-09 08:35:46,-5900,734,813,1805,1223,-3481,-57.49,-24.45
618,3,2, 2018-07-09 08:35:46,-6517,753,-1106,2140,4092,-3134,-57.68,-24.28
619,3,2, 2018-07-09 08:35:46,-6434,982,-666,4103,-2651,-1907,-57.57,-24.02
620,3,2, 2018-07-09 08:35:46,-6906,842,-104,3743,-2457,-1535,-57.24,-23.59
621,3,2, 2018-07-09 08:35:46,-7476,-138,-409,2536,1589,-1186,-57.33,-23.23
622,3,2, 2018-07-09 08:35:46,-7396,-354,-580,2230,-1520,-182,-57.26,-23.05
623,3,2, 2018-07-09 08:35:46,-6600,165,-848,1682,-1964,-506,-57.13,-22.9
624,3,2, 2018-07-09 08:35:46,-7321,155,-1255,1415,-2299,-240,-57,-22.76
625,3,2, 2018-07-09 08:35:46,-8192,36,-1548,1186,-1001,255,-56.97,-22.63
626,3,2, 2018-07-09 08:35:46,-8179,450,-993,760,-813,1031,-57,-22.46
627,3,2, 2018-07-09 08:35:46,-7755,-452,-1388,-1366,-1208,881,-56.96,-22.47
628,3,2, 2018-07-09 08:35:46,-8192,-1010,-2098,-1722,-1577,574,-56.93,-22.56
629,3,2, 2018-07-09 08:35:46,-8192,874,-2786,145,-1053,619,-56.93,-22.53
630,3,2, 2018-07-09 08:35:46,-8192,2173,-1617,805,150,1400,-56.99,-22.33
631,3,2, 2018-07-09 08:35:46,-8192,515,-221,3668,-5673,-1798,-56.8,-22.08
632,3,2, 2018-07-09 08:35:46,-8192,-1492,1218,-2950,881,-2906,-56.81,-22.16
633,3,2, 2018-07-09 08:35:46,-7935,-1417,3194,-3315,2800,-3065,-57.05,-22.35
634,3,2, 2018-07-09 08:35:46,-4056,1605,1829,-993,140,1381,-57.02,-22.39
635,3,2, 2018-07-09 08:35:46,-5190,2370,1233,-853,-1758,695,-56.89,-22.36
636,3,2, 2018-07-09 08:35:46,-8192,1135,109,-2772,2047,-875,-56.99,-22.42
637,3,2, 2018-07-09 08:35:46,-8192,144,-479,-6201,5339,-1920,-57.37,-22.72
638,3,2, 2018-07-09 08:35:46,-8192,-437,210,-4903,4695,205,-57.75,-23.01
639,3,2, 2018-07-09 08:35:46,-6082,-332,838,-3588,2652,2570,-57.93,-23.2
640,3,2, 2018-07-09 08:35:46,-5711,794,22,-4061,1675,3001,-58.02,-23.38
641,3,2, 2018-07-09 08:35:46,-6045,1743,-565,-4318,1256,1808,-58.07,-23.57
642,3,2, 2018-07-09 08:35:46,-7101,1242,-461,-5371,406,994,-58.11,-23.82
643,3,2, 2018-07-09 08:35:47,-7402,1389,-379,-4916,359,975,-58.13,-24.06
644,3,2, 2018-07-09 08:35:47,-7311,921,-803,-3500,2780,232,-58.36,-24.32
645,3,2, 2018-07-09 08:35:47,-6718,1589,-977,-3288,2475,-506,-58.51,-24.46
646,3,2, 2018-07-09 08:35:47,-6820,1560,-1052,-3031,-1334,-964,-58.44,-24.58
647,3,2, 2018-07-09 08:35:47,-7167,1515,-950,-3642,-2619,-1619,-58.3,-24.72
648,3,2, 2018-07-09 08:35:47,-8192,1865,-1836,-2510,-2306,-1044,-58.19,-24.82
649,3,2, 2018-07-09 08:35:47,-8192,1600,-1987,-1664,-744,-20,-58.18,-24.86
650,3,2, 2018-07-09 08:35:47,-8192,1711,-2009,-1445,967,56,-58.28,-24.87
651,3,2, 2018-07-09 08:35:47,-8054,1718,-1987,-1496,965,-385,-58.4,-24.89
652,3,2, 2018-07-09 08:35:47,-7955,1798,-2075,-1476,615,-144,-58.47,-24.91
653,3,2, 2018-07-09 08:35:47,-8192,2216,-506,-1592,-1708,1554,-58.48,-24.92
654,3,2, 2018-07-09 08:35:47,-8192,2721,-1835,2313,-1140,4797,-58.4,-24.8
655,3,2, 2018-07-09 08:35:47,-8192,2113,1262,5607,-2793,5942,-58.31,-24.12
656,3,2, 2018-07-09 08:35:47,-6607,-710,3370,-721,2127,-2,-58.37,-24.03
657,3,2, 2018-07-09 08:35:47,-5245,-2315,3172,-6387,2574,-5382,-58.51,-24.34
658,3,2, 2018-07-09 08:35:47,-5539,-1519,315,-5657,-1260,-1977,-58.43,-24.71
659,3,2, 2018-07-09 08:35:47,-8192,4458,-2677,1727,-3006,752,-58.79,-24.6
660,3,2, 2018-07-09 08:35:47,-7498,3515,106,3104,-2655,-1757,-58.58,-24.09
661,3,2, 2018-07-09 08:35:47,-5760,763,689,2647,1990,-4285,-58.66,-23.76
662,3,2, 2018-07-09 08:35:47,-6193,-138,-709,3261,3639,-3576,-58.84,-23.53
663,3,2, 2018-07-09 08:35:47,-6408,-385,-575,4231,-3442,-1567,-58.65,-23.27
664,3,2, 2018-07-09 08:35:47,-7232,987,-431,5016,-2492,-1201,-58.46,-22.91
665,3,2, 2018-07-09 08:35:47,-7664,-76,-627,3727,717,-1492,-58.53,-22.44
666,3,2, 2018-07-09 08:35:47,-6907,-744,-335,2274,361,-890,-58.57,-22.25
667,3,2, 2018-07-09 08:35:47,-6042,-1127,-262,-404,-1248,-239,-58.49,-22.21
668,3,2, 2018-07-09 08:35:47,-6740,-248,-1320,620,-3570,-304,-58.29,-22.16
669,3,2, 2018-07-09 08:35:47,-8192,878,-1691,593,-3467,59,-58.11,-22.05
670,3,2, 2018-07-09 08:35:47,-8192,843,-1109,-336,-1409,203,-58.07,-22.01
671,3,2, 2018-07-09 08:35:47,-7585,-464,-1227,-1242,-152,273,-58.06,-22.03
672,3,2, 2018-07-09 08:35:47,-8192,-987,-899,-1732,-176,248,-58.12,-22.11
673,3,2, 2018-07-09 08:35:47,-8192,655,-3136,-710,-425,568,-58.14,-22.12
674,3,2, 2018-07-09 08:35:47,-8192,2278,-2419,-281,1483,812,-58.3,-22.08
675,3,2, 2018-07-09 08:35:47,-8192,2635,-1512,2124,-992,-417,-58.35,-21.9
676,3,2, 2018-07-09 08:35:47,-8192,209,70,-12,-2287,-3633,-58.26,-21.78
677,3,2, 2018-07-09 08:35:47,-8192,-1669,1172,-1157,-666,-2276,-58.27,-21.83
678,3,2, 2018-07-09 08:35:47,-6143,57,2616,-204,1097,-1094,-58.29,-21.82
679,3,2, 2018-07-09 08:35:47,-3773,1305,2073,526,2514,2058,-58.37,-21.73
680,3,2, 2018-07-09 08:35:47,-7902,1370,213,-73,1468,281,-58.45,-21.59
681,3,2, 2018-07-09 08:35:48,-8192,1123,-946,-2883,6027,-346,-58.82,-21.68
682,3,2, 2018-07-09 08:35:48,-8192,-374,-729,-3786,5290,-201,-59.24,-21.88
683,3,2, 2018-07-09 08:35:48,-7008,-648,151,-705,4041,2583,-59.53,-21.93
684,3,2, 2018-07-09 08:35:48,-5663,775,874,-2299,1185,3825,-59.61,-21.98
685,3,2, 2018-07-09 08:35:48,-5642,1754,-101,-4532,972,2207,-59.63,-22.17
686,3,2, 2018-07-09 08:35:48,-6452,527,-860,-4759,597,-660,-59.65,-22.4
687,3,2, 2018-07-09 08:35:48,-7425,287,-151,-4026,1022,1143,-59.77,-22.62
688,3,2, 2018-07-09 08:35:48,-7596,719,-620,-5409,-458,788,-59.76,-22.87
689,3,2, 2018-07-09 08:35:48,-7392,1449,-1048,-4406,226,348,-59.78,-23.1
690,3,2, 2018-07-09 08:35:48,-6484,2042,-1408,-4182,-1486,-581,-59.74,-23.26
691,3,2, 2018-07-09 08:35:48,-6751,2140,-684,-3436,-3726,-625,-59.54,-23.41
692,3,2, 2018-07-09 08:35:48,-7736,1824,-1636,-3464,-4042,-690,-59.29,-23.55
693,3,2, 2018-07-09 08:35:48,-8192,1700,-1473,-2411,-2928,-216,-59.15,-23.63
694,3,2, 2018-07-09 08:35:48,-8192,1386,-2061,-2599,-29,-81,-59.17,-23.73
695,3,2, 2018-07-09 08:35:48,-8192,1887,-2151,-1326,1057,216,-59.3,-23.76
696,3,2, 2018-07-09 08:35:48,-8067,2359,-2312,-1153,1427,1129,-59.43,-23.74
697,3,2, 2018-07-09 08:35:48,-8192,1201,-3030,-2096,1828,817,-59.58,-23.79
698,3,2, 2018-07-09 08:35:48,-8192,1236,-1479,-1708,-1288,1370,-59.6,-23.83
699,3,2, 2018-07-09 08:35:48,-8192,3437,-596,2569,-1173,4436,-59.6,-23.65
700,3,2, 2018-07-09 08:35:48,-8192,2992,902,3458,-5402,5720,-59.39,-23.34
701,3,2, 2018-07-09 08:35:48,-7946,483,2987,1590,-1425,1437,-59.26,-23.17
702,3,2, 2018-07-09 08:35:48,-5368,-1417,2800,-3364,4855,-2837,-59.49,-23.3
703,3,2, 2018-07-09 08:35:48,-5303,-2184,1260,-2740,1503,-2961,-59.6,-23.48
704,3,2, 2018-07-09 08:35:48,-8192,-494,-1262,-199,6045,6980,-59.86,-23.47
705,3,2, 2018-07-09 08:35:48,-8192,3932,-2006,1701,-2315,239,-59.84,-23.32
706,3,2, 2018-07-09 08:35:48,-7788,2537,119,3045,-3657,-2036,-59.68,-23.04
707,3,2, 2018-07-09 08:35:48,-6574,1147,610,2396,-785,-3514,-59.56,-22.82
708,3,2, 2018-07-09 08:35:48,-6116,769,141,3112,1268,-3948,-59.6,-22.57
709,3,2, 2018-07-09 08:35:48,-6389,335,-1530,3647,-2687,-2370,-59.59,-22.24
710,3,2, 2018-07-09 08:35:48,-7046,553,-132,3899,-1707,-1418,-59.48,-21.93
711,3,2, 2018-07-09 08:35:48,-6993,-166,-529,1739,-593,-1289,-59.42,-21.75
712,3,2, 2018-07-09 08:35:48,-6967,-597,-976,42,-1091,-1039,-59.36,-21.7
713,3,2, 2018-07-09 08:35:48,-7437,-872,-932,-1090,-1575,-747,-59.27,-21.72
714,3,2, 2018-07-09 08:35:48,-7175,300,-506,-1806,-1268,-684,-59.21,-21.78
715,3,2, 2018-07-09 08:35:48,-7443,616,-926,-2287,-2468,754,-59.07,-21.86
716,3,2, 2018-07-09 08:35:48,-8192,600,-2132,-2789,-1659,1462,-59.01,-21.97
717,3,2, 2018-07-09 08:35:49,-8192,463,-2138,-2354,221,872,-59.06,-22.08
718,3,2, 2018-07-09 08:35:49,-8192,1390,-880,-1135,-143,263,-59.14,-22.1
719,3,2, 2018-07-09 08:35:49,-8192,2194,-2159,-256,516,465,-59.2,-22.05
720,3,2, 2018-07-09 08:35:49,-8192,2452,-3436,3083,495,696,-59.34,-21.76
721,3,2, 2018-07-09 08:35:49,-8192,2733,-965,4957,157,525,-59.44,-21.4
722,3,2, 2018-07-09 08:35:49,-8192,-671,1396,4817,-8437,-673,-59.05,-21
723,3,2, 2018-07-09 08:35:49,-8192,-2179,2043,-1311,2123,-2464,-59.04,-21.05
724,3,2, 2018-07-09 08:35:49,-7033,-620,3374,446,5260,-1013,-59.41,-21.02
725,3,2, 2018-07-09 08:35:49,-3891,1204,1676,3633,5053,1816,-59.67,-20.79
726,3,2, 2018-07-09 08:35:49,-5477,2977,1655,4198,-1386,1037,-59.65,-20.44
727,3,2, 2018-07-09 08:35:49,-8192,1257,-3738,-915,3765,-1822,-59.71,-20.36
728,3,2, 2018-07-09 08:35:49,-8192,460,-751,-2680,4232,1023,-60.1,-20.45
729,3,2, 2018-07-09 08:35:49,-8098,-782,490,-1507,4107,2022,-60.42,-20.54
730,3,2, 2018-07-09 08:35:49,-5454,810,562,-2873,3437,3004,-60.7,-20.66
731,3,2, 2018-07-09 08:35:49,-5497,688,-59,-90,-402,11,-60.7,-20.74
732,3,2, 2018-07-09 08:35:49,-6484,550,-172,-4637,-459,772,-60.66,-20.98
733,3,2, 2018-07-09 08:35:49,-7331,1097,-296,-5008,-325,710,-60.59,-21.34
734,3,2, 2018-07-09 08:35:49,-7864,1873,-1554,-5352,1999,13,-60.71,-21.59
735,3,2, 2018-07-09 08:35:49,-7044,2425,-1340,-4172,-285,-447,-60.71,-21.79
736,3,2, 2018-07-09 08:35:49,-6913,1822,-1417,-3239,-1416,-499,-60.63,-21.93
737,3,2, 2018-07-09 08:35:49,-7340,1404,-1579,-2876,-1232,-822,-60.55,-22.04
738,3,2, 2018-07-09 08:35:49,-8081,1607,-1585,-3205,-324,-676,-60.55,-22.16
739,3,2, 2018-07-09 08:35:49,-8192,1047,-1793,-4522,1127,-313,-60.66,-22.36
740,3,2, 2018-07-09 08:35:49,-8192,1290,-1637,-4310,1887,-316,-60.83,-22.57
741,3,2, 2018-07-09 08:35:49,-7922,2558,-1755,-2548,704,250,-60.93,-22.67
742,3,2, 2018-07-09 08:35:49,-7629,3109,-2196,-2199,949,-216,-61,-22.71
743,3,2, 2018-07-09 08:35:49,-8192,2064,-2271,-2407,1460,-565,-61.13,-22.77
744,3,2, 2018-07-09 08:35:49,-8192,2643,-677,-2488,-1740,1262,-61.14,-22.84
745,3,2, 2018-07-09 08:35:49,-8192,1935,-1298,-1118,-986,3621,-61.08,-22.86
746,3,2, 2018-07-09 08:35:49,-8192,1052,-304,1180,3078,3041,-61.29,-22.75
747,3,2, 2018-07-09 08:35:49,-6800,-470,1244,-1070,5498,246,-61.61,-22.72
748,3,2, 2018-07-09 08:35:49,-4362,-1361,2151,-5979,1364,-2976,-61.71,-23
749,3,2, 2018-07-09 08:35:49,-3842,-934,2839,-6117,136,-1027,-61.64,-23.37
750,3,2, 2018-07-09 08:35:49,-6402,972,1726,-4151,-6562,4214,-61.29,-23.58
751,3,2, 2018-07-09 08:35:49,-8192,3694,-7192,-1873,3635,406,-61.2,-23.62
752,3,2, 2018-07-09 08:35:49,-8192,2902,-306,6618,-4521,-652,-61.13,-23.2
753,3,2, 2018-07-09 08:35:49,-7791,1831,612,3590,-1729,-3209,-61.02,-22.89
754,3,2, 2018-07-09 08:35:49,-6236,340,-128,2762,3160,-2992,-61.19,-22.5
755,3,2, 2018-07-09 08:35:49,-6101,-492,-1970,1983,-3199,-2483,-61.05,-22.39
756,3,2, 2018-07-09 08:35:49,-6631,274,-827,1996,-2507,-2008,-60.88,-22.21
757,3,2, 2018-07-09 08:35:49,-7309,1174,-1137,1862,-1688,-856,-60.75,-22.04
758,3,2, 2018-07-09 08:35:49,-7479,551,-1315,1861,-1323,-189,-60.69,-21.88
759,3,2, 2018-07-09 08:35:49,-7059,197,-1529,1984,-1966,37,-60.57,-21.71
760,3,2, 2018-07-09 08:35:50,-7038,168,-1527,1802,-1549,82,-60.47,-21.55
761,3,2, 2018-07-09 08:35:50,-7512,669,-1706,1839,-1182,394,-60.39,-21.39
762,3,2, 2018-07-09 08:35:50,-7680,1031,-1760,2221,-259,511,-60.38,-21.2
763,3,2, 2018-07-09 08:35:50,-7461,1151,-1557,2309,1041,476,-60.44,-21
764,3,2, 2018-07-09 08:35:50,-7605,-882,-576,958,93,-345,-60.52,-20.82
765,3,2, 2018-07-09 08:35:50,-8192,-864,-1013,1762,-909,-392,-60.52,-20.71
766,3,2, 2018-07-09 08:35:50,-8192,1842,-2025,5015,400,1141,-60.59,-20.38
767,3,2, 2018-07-09 08:35:50,-8192,2528,-716,6682,-879,1268,-60.61,-19.91
