No, id_percobaan, id_pasien, waktu, accx, accY, accZ, gyroX, gyroY, gyroZ, roll, pitch
1039,5,2, 2018-07-09 08:36:20,-6823,377,2572,5738,2129,-422,-63.41,17.35
1040,5,2, 2018-07-09 08:36:20,-7376,-97,1577,4459,1176,-891,-63.53,17.77
1041,5,2, 2018-07-09 08:36:20,-8192,800,-1521,2970,3179,-1689,-63.77,18
1042,5,2, 2018-07-09 08:36:20,-8192,1387,445,3964,-2141,-1268,-63.75,18.21
1043,5,2, 2018-07-09 08:36:20,-6866,1381,403,3711,-870,-2228,-63.65,18.43
1044,5,2, 2018-07-09 08:36:20,-6824,793,323,3463,-241,-2953,-63.63,18.62
1045,5,2, 2018-07-09 08:36:20,-7176,680,-1239,3066,-2897,-2729,-63.48,18.77
1046,5,2, 2018-07-09 08:36:20,-7607,1106,-254,4057,-988,-2562,-63.43,18.99
1047,5,2, 2018-07-09 08:36:20,-7044,700,216,3621,-460,-1840,-63.39,19.3
1048,5,2, 2018-07-09 08:36:20,-7313,142,-564,3535,-1028,-1254,-63.33,19.48
1049,5,2, 2018-07-09 08:36:20,-7530,-147,-672,2926,-1588,-931,-63.24,19.63
1050,5,2, 2018-07-09 08:36:21,-7488,294,-485,486,-1629,-126,-63.1,19.67
1051,5,2, 2018-07-09 08:36:21,-8020,185,-916,-279,-2414,-83,-62.92,19.61
1052,5,2, 2018-07-09 08:36:21,-8192,-28,-1060,-203,-1413,-381,-62.87,19.56
1053,5,2, 2018-07-09 08:36:21,-7825,502,-1292,-784,96,1,-62.91,19.47
1054,5,2, 2018-07-09 08:36:21,-8192,340,-938,-1921,468,327,-62.99,19.33
1055,5,2, 2018-07-09 08:36:21,-8192,1582,-2650,-56,2323,533,-63.17,19.28
1056,5,2, 2018-07-09 08:36:21,-8192,3530,-2460,1804,899,887,-63.43,19.41
1057,5,2, 2018-07-09 08:36:21,-8192,1578,-684,4018,-1069,597,-63.46,19.6
1058,5,2, 2018-07-09 08:36:21,-8192,-1165,1674,3989,-5970,-1145,-63.15,19.87
1059,5,2, 2018-07-09 08:36:21,-8192,-712,2255,1071,3129,-2055,-63.3,19.88
1060,5,2, 2018-07-09 08:36:21,-6310,1108,3798,3307,5369,-1288,-63.63,20.02
1061,5,2, 2018-07-09 08:36:21,-4853,2724,2397,3912,-354,119,-63.7,20.37
1062,5,2, 2018-07-09 08:36:21,-7197,1039,915,2252,-2595,-815,-63.52,20.52
1063,5,2, 2018-07-09 08:36:21,-8192,-1315,52,-4105,8594,278,-64.36,20.28
1064,5,2, 2018-07-09 08:36:21,-8192,-1716,527,-3261,1052,3128,-64.51,19.99
1065,5,2, 2018-07-09 08:36:21,-5796,573,829,-4171,-544,3611,-64.45,19.58
1066,5,2, 2018-07-09 08:36:21,-5438,2189,670,-4811,1462,2993,-64.48,19.28
1067,5,2, 2018-07-09 08:36:21,-7904,888,-868,-5308,2425,1140,-64.58,18.82
1068,5,2, 2018-07-09 08:36:21,-7420,1117,-487,-4167,2881,1937,-64.77,18.54
1069,5,2, 2018-07-09 08:36:21,-7414,1203,-592,-4630,1906,1372,-64.9,18.23
1070,5,2, 2018-07-09 08:36:21,-6293,2044,-88,-4140,-1465,387,-64.83,17.83
1071,5,2, 2018-07-09 08:36:21,-6363,2221,-583,-3068,-1764,63,-64.68,17.62
1072,5,2, 2018-07-09 08:36:21,-7367,2063,-895,-2578,-2604,-946,-64.52,17.46
1073,5,2, 2018-07-09 08:36:21,-8192,2027,-1573,-1683,-1081,-1369,-64.49,17.33
1074,5,2, 2018-07-09 08:36:21,-8192,1218,-2059,375,3032,-861,-64.66,17.31
1075,5,2, 2018-07-09 08:36:21,-8192,1476,-2252,-1003,718,386,-64.94,17.24
1076,5,2, 2018-07-09 08:36:21,-7869,1808,-2163,-1934,426,76,-65,17.13
1077,5,2, 2018-07-09 08:36:21,-8067,856,-2149,-2715,-850,-765,-65,16.83
1078,5,2, 2018-07-09 08:36:21,-8192,3057,575,-1670,-7645,2773,-64.73,16.72
1079,5,2, 2018-07-09 08:36:21,-8192,2988,4,1642,-9497,5962,-64.18,16.77
1080,5,2, 2018-07-09 08:36:21,-8192,2255,2643,4016,-4259,3190,-63.84,17
1081,5,2, 2018-07-09 08:36:21,-6690,1123,3105,1793,5499,-1158,-64.08,17.15
1082,5,2, 2018-07-09 08:36:21,-3386,-468,2480,-2677,6194,-3390,-64.41,17.01
1083,5,2, 2018-07-09 08:36:21,-3033,-1252,2768,-3422,566,-2277,-64.46,16.72
1084,5,2, 2018-07-09 08:36:21,-5677,467,2788,-1793,-8603,2893,-63.99,16.57
1085,5,2, 2018-07-09 08:36:21,-8192,3947,-6596,-2167,1512,175,-63.78,16.44
1086,5,2, 2018-07-09 08:36:21,-8192,2367,1404,4236,1823,-833,-64.15,16.75
1087,5,2, 2018-07-09 08:36:21,-7588,1190,230,1862,-2446,-1963,-64,16.86
1088,5,2, 2018-07-09 08:36:21,-6353,246,715,1480,1942,-2692,-64.08,16.97
1089,5,2, 2018-07-09 08:36:21,-6864,550,-515,1205,3066,-2393,-64.31,17.03
1090,5,2, 2018-07-09 08:36:22,-7256,637,-639,1236,698,-1924,-64.38,17.07
1091,5,2, 2018-07-09 08:36:22,-7032,-186,1,132,-659,-1651,-64.36,17.07
1092,5,2, 2018-07-09 08:36:22,-6885,241,-716,-2198,-702,-549,-64.31,16.91
1093,5,2, 2018-07-09 08:36:22,-7249,620,-1831,-1707,-2408,316,-64.16,16.75
1094,5,2, 2018-07-09 08:36:22,-7888,1303,-1496,-502,-2069,499,-64.05,16.7
1095,5,2, 2018-07-09 08:36:22,-8080,1165,-1782,-2,-1338,306,-63.99,16.68
1096,5,2, 2018-07-09 08:36:22,-8192,1373,-1737,1507,305,179,-64.08,16.75
1097,5,2, 2018-07-09 08:36:22,-8007,1138,-1263,2128,-1148,789,-64.06,16.86
1098,5,2, 2018-07-09 08:36:22,-8192,1993,-2704,3032,-516,1367,-64.13,17.08
1099,5,2, 2018-07-09 08:36:22,-8192,2752,-826,4140,-4367,1129,-64,17.3
1100,5,2, 2018-07-09 08:36:22,-8192,-539,1129,-339,-4309,-3134,-63.74,17.34
1101,5,2, 2018-07-09 08:36:22,-8192,-651,1950,-1315,-534,-3545,-63.72,17.19
1102,5,2, 2018-07-09 08:36:22,-5595,1127,2920,1746,2250,-401,-63.79,17.24
1103,5,2, 2018-07-09 08:36:22,-4230,2064,2529,4374,2785,2818,-63.9,17.49
1104,5,2, 2018-07-09 08:36:22,-7724,323,2252,1378,-1724,478,-63.81,17.71
1105,5,2, 2018-07-09 08:36:22,-8192,-642,-984,-1433,9523,-676,-64.24,17.61
1106,5,2, 2018-07-09 08:36:22,-7791,-97,12,-3756,5802,2635,-65,17.22
1107,5,2, 2018-07-09 08:36:22,-5675,484,438,-4091,3769,2605,-65.36,16.83
1108,5,2, 2018-07-09 08:36:22,-5276,582,687,-6613,1080,633,-65.49,16.25
1109,5,2, 2018-07-09 08:36:22,-6943,849,448,-8027,-897,722,-65.4,15.52
1110,5,2, 2018-07-09 08:36:22,-8119,1490,-787,-6986,355,-126,-65.42,15.06
1111,5,2, 2018-07-09 08:36:22,-7550,2815,-658,-5685,1062,-550,-65.5,14.7
1112,5,2, 2018-07-09 08:36:22,-6953,3036,-1019,-4371,1081,-1658,-65.55,14.43
1113,5,2, 2018-07-09 08:36:22,-6711,2422,-1165,-3280,1312,-2288,-65.61,14.23
1114,5,2, 2018-07-09 08:36:22,-7253,1845,-1520,-2662,-3351,-1771,-65.41,14.05
1115,5,2, 2018-07-09 08:36:22,-8156,1721,-1390,-3130,-3327,-1847,-65.22,13.87
1116,5,2, 2018-07-09 08:36:22,-8192,1848,-2018,-2776,-566,-1385,-65.2,13.68
1117,5,2, 2018-07-09 08:36:22,-8192,2023,-1876,-2541,727,-322,-65.28,13.53
1118,5,2, 2018-07-09 08:36:22,-8192,1632,-2262,-2894,1584,-560,-65.41,13.35
1119,5,2, 2018-07-09 08:36:22,-7702,2063,-2192,-1659,1395,268,-65.51,13.23
1120,5,2, 2018-07-09 08:36:22,-8192,2455,62,-2674,-2642,2712,-65.49,13.09
1121,5,2, 2018-07-09 08:36:22,-8192,3537,-1071,2608,-5223,6593,-65.19,13.18
1122,5,2, 2018-07-09 08:36:22,-8192,2483,2393,3773,-4988,6767,-64.88,13.47
1123,5,2, 2018-07-09 08:36:23,-5903,-1400,3736,-2860,5884,-2687,-65.27,13.36
1124,5,2, 2018-07-09 08:36:23,-5437,-2586,1640,-4532,1397,-4583,-65.39,13.01
1125,5,2, 2018-07-09 08:36:23,-6316,-101,-1931,-1965,5893,4721,-65.56,12.84
1126,5,2, 2018-07-09 08:36:23,-8192,7026,-2282,-746,-1562,-1246,-65.78,12.92
1127,5,2, 2018-07-09 08:36:23,-8192,4056,-153,4528,-2653,-1357,-65.72,13.2
1128,5,2, 2018-07-09 08:36:23,-6426,1582,676,3640,-1050,-3302,-65.61,13.43
1129,5,2, 2018-07-09 08:36:23,-5269,358,982,4422,-434,-3442,-65.54,13.68
1130,5,2, 2018-07-09 08:36:23,-6235,188,-172,4079,-1667,-1738,-65.34,14.01
1131,5,2, 2018-07-09 08:36:23,-7438,904,-260,4561,-2780,-1413,-65.19,14.27
1132,5,2, 2018-07-09 08:36:23,-7555,1146,-447,4572,-1423,-1610,-65.08,14.53
1133,5,2, 2018-07-09 08:36:23,-6862,-303,-707,2688,-2288,-1586,-64.92,14.79
1134,5,2, 2018-07-09 08:36:23,-7089,283,-738,1965,-3823,-322,-64.59,14.96
1135,5,2, 2018-07-09 08:36:23,-7399,308,-861,1053,-3777,467,-64.35,15.01
1136,5,2, 2018-07-09 08:36:23,-8192,725,-1053,3253,-1874,1156,-64.21,15.22
1137,5,2, 2018-07-09 08:36:23,-8192,623,-576,2195,-11,1274,-64.24,15.36
1138,5,2, 2018-07-09 08:36:23,-8192,-812,-331,-169,505,733,-64.32,15.33
1139,5,2, 2018-07-09 08:36:23,-8192,-763,-2356,437,1654,291,-64.45,15.29
1140,5,2, 2018-07-09 08:36:23,-8192,2419,-3985,1507,2375,887,-64.65,15.38
1141,5,2, 2018-07-09 08:36:23,-8192,3047,-317,3027,-2077,1149,-64.69,15.55
1142,5,2, 2018-07-09 08:36:23,-8192,-968,1211,-526,-948,-2842,-64.51,15.69
1143,5,2, 2018-07-09 08:36:23,-8192,-1453,1704,-572,1480,-2589,-64.64,15.59
1144,5,2, 2018-07-09 08:36:23,-5655,1492,1506,1064,2392,923,-64.8,15.6
1145,5,2, 2018-07-09 08:36:23,-6225,2207,1946,81,-709,1536,-64.78,15.66
1146,5,2, 2018-07-09 08:36:23,-8192,1062,444,-1846,-2603,-209,-64.56,15.55
1147,5,2, 2018-07-09 08:36:23,-8192,481,-838,-3518,6262,753,-64.87,15.32
1148,5,2, 2018-07-09 08:36:23,-6213,373,937,-2527,2476,2534,-65.22,14.99
1149,5,2, 2018-07-09 08:36:23,-5468,1290,461,-2652,1201,1471,-65.29,14.75
1150,5,2, 2018-07-09 08:36:23,-6330,1216,-238,-4644,683,31,-65.3,14.49
1151,5,2, 2018-07-09 08:36:23,-7046,964,-523,-5719,1635,-85,-65.37,14.13
1152,5,2, 2018-07-09 08:36:23,-7342,978,-624,-5217,728,167,-65.46,13.61
1153,5,2, 2018-07-09 08:36:23,-7038,1705,-700,-5080,608,-497,-65.52,13.14
1154,5,2, 2018-07-09 08:36:23,-6959,1820,-1095,-4597,-440,-990,-65.49,12.85
1155,5,2, 2018-07-09 08:36:23,-7297,1882,-1086,-4104,-1891,-1352,-65.39,12.6
1156,5,2, 2018-07-09 08:36:23,-8151,1973,-1634,-4487,-3091,-2044,-65.23,12.33
1157,5,2, 2018-07-09 08:36:23,-8192,2796,-2378,-4500,-1844,-1145,-65.14,12.07
1158,5,2, 2018-07-09 08:36:23,-8192,1604,-2294,-3902,913,-891,-65.22,11.82
1159,5,2, 2018-07-09 08:36:24,-8192,1940,-2421,-909,2503,-583,-65.4,11.72
1160,5,2, 2018-07-09 08:36:24,-7905,2429,-3090,-453,1622,-66,-65.54,11.71
1161,5,2, 2018-07-09 08:36:24,-8048,1496,-2555,-795,1120,58,-65.63,11.66
1162,5,2, 2018-07-09 08:36:24,-8192,3173,1203,-1552,-8253,4323,-65.35,11.53
1163,5,2, 2018-07-09 08:36:24,-8192,3300,2086,5972,-3584,6546,-64.69,11.85
1164,5,2, 2018-07-09 08:36:24,-7045,788,3942,3495,6788,1996,-65.06,12.11
1165,5,2, 2018-07-09 08:36:24,-4183,-1549,3199,-932,5785,-1872,-65.37,12.06
1166,5,2, 2018-07-09 08:36:24,-5731,-1153,3044,2179,-2965,963,-65.28,12.1
1167,5,2, 2018-07-09 08:36:24,-8192,2264,-4885,-608,2745,3485,-65.26,12.09
1168,5,2, 2018-07-09 08:36:24,-8192,3329,-425,3210,3024,-640,-65.78,12.3
1169,5,2, 2018-07-09 08:36:24,-7894,1926,299,3829,-4113,-1996,-65.6,12.56
1170,5,2, 2018-07-09 08:36:24,-5807,-51,1136,2913,206,-3368,-65.46,12.77
1171,5,2, 2018-07-09 08:36:24,-5922,19,237,2001,344,-2826,-65.43,12.94
1172,5,2, 2018-07-09 08:36:24,-6723,1223,-1134,2574,-4145,-1640,-65.2,13.07
1173,5,2, 2018-07-09 08:36:24,-7533,1431,-78,3080,-2749,-1118,-65.02,13.26
1174,5,2, 2018-07-09 08:36:24,-6498,96,502,1347,-2310,-1353,-64.77,13.39
1175,5,2, 2018-07-09 08:36:24,-6968,-521,-723,-87,-2001,-868,-64.61,13.38
1176,5,2, 2018-07-09 08:36:24,-8088,-564,-1425,-471,-1963,-450,-64.53,13.31
1177,5,2, 2018-07-09 08:36:24,-7581,482,-346,-1657,-2836,204,-64.38,13.2
1178,5,2, 2018-07-09 08:36:24,-8192,717,-2522,-20,-108,168,-64.31,13.1
1179,5,2, 2018-07-09 08:36:24,-8192,1758,-1812,-88,706,202,-64.46,13.09
1180,5,2, 2018-07-09 08:36:24,-8192,1413,-2599,465,399,356,-64.56,13.11
1181,5,2, 2018-07-09 08:36:24,-8192,827,-1702,2229,232,905,-64.63,13.2
1182,5,2, 2018-07-09 08:36:24,-8192,399,1329,1681,-5591,-1912,-64.31,13.44
1183,5,2, 2018-07-09 08:36:24,-8192,-415,2553,-4016,-5,-5114,-64.3,13.18
1184,5,2, 2018-07-09 08:36:24,-6084,865,3406,-1281,2685,-3418,-64.39,13.05
1185,5,2, 2018-07-09 08:36:24,-3864,1472,2715,3810,3522,565,-64.54,13.22
1186,5,2, 2018-07-09 08:36:24,-7667,1489,784,3171,-12,963,-64.5,13.61
1187,5,2, 2018-07-09 08:36:24,-8192,682,-1200,-641,12980,-553,-65.21,13.59
1188,5,2, 2018-07-09 08:36:24,-8192,-49,-1427,-3839,4538,-72,-65.73,13.35
1189,5,2, 2018-07-09 08:36:24,-7114,-847,243,-1969,4169,2276,-65.99,13.17
1190,5,2, 2018-07-09 08:36:24,-4944,269,817,-2518,1802,3087,-66.09,13.01
1191,5,2, 2018-07-09 08:36:24,-5061,1168,441,-5096,-1749,2707,-65.92,12.57
1192,5,2, 2018-07-09 08:36:24,-6521,952,-231,-5262,-1145,522,-65.78,12.25
1193,5,2, 2018-07-09 08:36:24,-7453,1312,-382,-5132,-651,1004,-65.74,11.91
1194,5,2, 2018-07-09 08:36:24,-7252,2108,-815,-4654,987,98,-65.78,11.47
1195,5,2, 2018-07-09 08:36:24,-6570,2539,-1102,-3143,682,-625,-65.8,11.27
1196,5,2, 2018-07-09 08:36:25,-6887,2218,-2146,-2609,-1799,-1235,-65.76,11.12
1197,5,2, 2018-07-09 08:36:25,-7566,1799,-1074,-2418,-2134,-838,-65.63,11
1198,5,2, 2018-07-09 08:36:25,-8192,1405,-1918,-3408,-7,-552,-65.64,10.8
1199,5,2, 2018-07-09 08:36:25,-8192,270,-2051,-3547,1616,-582,-65.78,10.55
1200,5,2, 2018-07-09 08:36:25,-8192,2327,-1423,-1627,920,390,-65.9,10.43
1201,5,2, 2018-07-09 08:36:25,-7831,3594,-2221,-2488,1530,-215,-66.03,10.3
1202,5,2, 2018-07-09 08:36:25,-8192,2187,-1387,-2971,-1676,225,-66.03,10.12
1203,5,2, 2018-07-09 08:36:25,-8192,1841,863,3124,-5029,5453,-65.8,10.32
1204,5,2, 2018-07-09 08:36:25,-8192,2013,1552,4188,-2918,5808,-65.59,10.61
1205,5,2, 2018-07-09 08:36:25,-4780,-1257,2586,-3809,2932,-1635,-65.68,10.48
1206,5,2, 2018-07-09 08:36:25,-4390,-2175,1578,-5400,1092,-4054,-65.73,10.08
1207,5,2, 2018-07-09 08:36:25,-5873,365,-1392,-2797,2172,4946,-65.73,9.87
1208,5,2, 2018-07-09 08:36:25,-8192,3185,-897,1662,-2080,905,-65.97,10
1209,5,2, 2018-07-09 08:36:25,-7854,2510,242,2998,-5740,-1152,-65.68,10.2
1210,5,2, 2018-07-09 08:36:25,-6264,1687,782,2671,-151,-3088,-65.55,10.36
1211,5,2, 2018-07-09 08:36:25,-5983,765,169,3055,3161,-3576,-65.67,10.54
1212,5,2, 2018-07-09 08:36:25,-5982,-216,-240,1277,807,-3297,-65.74,10.62
1213,5,2, 2018-07-09 08:36:25,-6858,201,-976,3730,-5637,-1642,-65.39,10.8
1214,5,2, 2018-07-09 08:36:25,-7845,537,-390,3164,-2576,-1264,-65.2,10.99
1215,5,2, 2018-07-09 08:36:25,-7507,157,-679,1705,-1103,-1249,-65.13,11.1
1216,5,2, 2018-07-09 08:36:25,-7039,-244,-1010,1059,-1261,-807,-65.05,11.15
1217,5,2, 2018-07-09 08:36:25,-7076,-536,-704,155,-2116,-379,-64.92,11.13
1218,5,2, 2018-07-09 08:36:25,-7824,904,-1056,488,-3758,94,-64.62,11.14
1219,5,2, 2018-07-09 08:36:25,-8192,1125,-2161,2101,-1512,695,-64.54,11.23
1220,5,2, 2018-07-09 08:36:25,-8192,1140,-1047,1658,254,217,-64.59,11.35
1221,5,2, 2018-07-09 08:36:25,-8192,-1132,-94,-730,1097,-815,-64.71,11.25
1222,5,2, 2018-07-09 08:36:25,-8192,648,-3476,2733,1409,-1537,-64.84,11.36
1223,5,2, 2018-07-09 08:36:25,-8192,3657,-2723,3865,-959,478,-64.85,11.61
1224,5,2, 2018-07-09 08:36:25,-8192,2960,-118,5978,-5735,-138,-64.58,11.97
1225,5,2, 2018-07-09 08:36:25,-8192,-1867,984,1604,1881,-2450,-64.62,12.11
1226,5,2, 2018-07-09 08:36:25,-7906,-774,2804,1470,869,-2805,-64.73,12.18
1227,5,2, 2018-07-09 08:36:25,-4551,1333,2221,2548,1494,-57,-64.75,12.28
1228,5,2, 2018-07-09 08:36:25,-5699,1945,2450,854,-2250,635,-64.68,12.43
1229,5,2, 2018-07-09 08:36:25,-8192,478,1084,-2324,-3998,-831,-64.45,12.32
1230,5,2, 2018-07-09 08:36:25,-8192,-202,-1590,-2895,13661,-559,-65.1,12.1
1231,5,2, 2018-07-09 08:36:25,-7599,-374,468,-5277,3758,1673,-65.45,11.75
1232,5,2, 2018-07-09 08:36:25,-5869,654,1077,-4685,436,2309,-65.5,11.32
1233,5,2, 2018-07-09 08:36:25,-6120,1134,379,-5264,1522,1395,-65.53,11
1234,5,2, 2018-07-09 08:36:25,-6827,1689,116,-6279,410,1411,-65.61,10.43
1235,5,2, 2018-07-09 08:36:25,-7795,1444,-440,-4811,645,697,-65.63,10.11
1236,5,2, 2018-07-09 08:36:25,-7600,1749,-629,-4348,2157,336,-65.76,9.85
1237,5,2, 2018-07-09 08:36:26,-6923,1755,-895,-3171,880,-199,-65.86,9.53
1238,5,2, 2018-07-09 08:36:26,-6935,1681,-1169,-3408,-1191,-883,-65.82,9.34
1239,5,2, 2018-07-09 08:36:26,-7288,1749,-1278,-3333,-2703,-1125,-65.65,9.15
1240,5,2, 2018-07-09 08:36:26,-8192,1387,-1292,-3795,-1856,-722,-65.55,8.92
1241,5,2, 2018-07-09 08:36:26,-8192,1300,-1657,-3585,2003,-50,-65.74,8.59
1242,5,2, 2018-07-09 08:36:26,-8192,1605,-1923,-2911,1174,-454,-65.86,8.4
1243,5,2, 2018-07-09 08:36:26,-7494,3050,-2497,-1751,332,101,-65.9,8.31
1244,5,2, 2018-07-09 08:36:26,-7910,1246,-2520,-2554,848,-990,-65.97,8.11
1245,5,2, 2018-07-09 08:36:26,-8192,2022,739,-2443,-4409,1051,-65.89,7.95
1246,5,2, 2018-07-09 08:36:26,-8192,2205,1131,2784,-9242,6636,-65.11,8.02
1247,5,2, 2018-07-09 08:36:26,-8192,2259,3734,5109,723,3509,-65.04,8.34
1248,5,2, 2018-07-09 08:36:26,-4518,-703,2447,-2541,4507,-2868,-65.37,8.27
1249,5,2, 2018-07-09 08:36:26,-4279,-1821,1676,-1730,1609,-3861,-65.46,8.08
1250,5,2, 2018-07-09 08:36:26,-4827,581,106,-617,-2636,4407,-65.27,8.03
1251,5,2, 2018-07-09 08:36:26,-8192,3498,-728,3173,498,175,-65.59,8.28
1252,5,2, 2018-07-09 08:36:26,-7597,1732,407,5075,-4389,-2064,-65.29,8.77
