No, id_percobaan, id_pasien, waktu, accx, accY, accZ, gyroX, gyroY, gyroZ, roll, pitch
1977,9,2, 2018-07-09 08:36:58,-8192,-193,-609,3039,758,538,-65.32,26.63
1978,9,2, 2018-07-09 08:36:59,-8192,-164,-954,3749,342,1351,-65.4,26.79
1979,9,2, 2018-07-09 08:36:59,-8192,606,-1278,4184,-1203,1909,-65.4,27
1980,9,2, 2018-07-09 08:36:59,-8192,1402,-1630,4288,-1880,2424,-65.33,27.22
1981,9,2, 2018-07-09 08:36:59,-8192,-121,-869,4852,-1527,2687,-65.29,27.46
1982,9,2, 2018-07-09 08:36:59,-8192,-880,447,5182,-4186,996,-65.14,27.71
1983,9,2, 2018-07-09 08:36:59,-8192,-209,510,941,1472,1932,-65.17,27.77
1984,9,2, 2018-07-09 08:36:59,-7962,-459,-199,-2049,4222,1782,-65.64,27.52
1985,9,2, 2018-07-09 08:36:59,-6802,79,-1235,-594,1291,2601,-65.74,27.41
1986,9,2, 2018-07-09 08:36:59,-5499,34,77,2478,1009,3313,-65.77,27.46
1987,9,2, 2018-07-09 08:36:59,-5519,430,1739,4063,-2194,3423,-65.65,27.65
1988,9,2, 2018-07-09 08:36:59,-6564,1377,1965,2345,-4137,1485,-65.34,27.79
1989,9,2, 2018-07-09 08:36:59,-8192,3016,35,-953,4314,-2625,-65.61,27.77
1990,9,2, 2018-07-09 08:36:59,-8192,1982,-378,-319,6326,-2130,-66.04,27.71
1991,9,2, 2018-07-09 08:36:59,-8192,-428,-735,501,5718,591,-66.61,27.66
1992,9,2, 2018-07-09 08:36:59,-7724,535,-783,5,2584,2022,-66.86,27.61
1993,9,2, 2018-07-09 08:36:59,-6491,816,1,-2140,1653,2379,-66.94,27.47
1994,9,2, 2018-07-09 08:36:59,-6005,289,261,-3390,1611,1573,-67.06,27.11
1995,9,2, 2018-07-09 08:36:59,-5548,851,578,-4154,-834,2376,-66.94,26.69
1996,9,2, 2018-07-09 08:36:59,-6750,1339,-432,-4303,-1133,1984,-66.82,26.39
1997,9,2, 2018-07-09 08:36:59,-8020,1873,-989,-3597,817,984,-66.88,26.13
1998,9,2, 2018-07-09 08:36:59,-7683,2102,-889,-2368,1061,-63,-66.95,25.94
1999,9,2, 2018-07-09 08:36:59,-6536,2210,-836,-667,625,-874,-66.98,25.86
2000,9,2, 2018-07-09 08:36:59,-6734,1482,-1586,-1778,-1473,-306,-66.92,25.71
2001,9,2, 2018-07-09 08:36:59,-8192,1462,-1494,-748,-3109,119,-66.77,25.62
2002,9,2, 2018-07-09 08:36:59,-8192,1765,-1458,-1152,-234,-883,-66.74,25.53
2003,9,2, 2018-07-09 08:36:59,-8192,1952,-1546,-1583,2415,-1150,-66.91,25.41
2004,9,2, 2018-07-09 08:36:59,-8192,1788,-2413,-1205,2644,-723,-67.13,25.31
2005,9,2, 2018-07-09 08:36:59,-7544,2046,-2614,-1424,274,-147,-67.16,25.21
2006,9,2, 2018-07-09 08:36:59,-8120,1223,-2171,-2148,-638,-632,-67.15,25.05
2007,9,2, 2018-07-09 08:36:59,-8192,1137,-566,-4929,-3944,-426,-67.04,24.76
2008,9,2, 2018-07-09 08:36:59,-8192,3120,-365,-647,-5481,3497,-66.76,24.61
2009,9,2, 2018-07-09 08:36:59,-8192,3215,1219,2363,-7458,5485,-66.35,24.74
2010,9,2, 2018-07-09 08:36:59,-8005,1536,1738,2618,1485,2589,-66.33,24.86
2011,9,2, 2018-07-09 08:36:59,-5448,-609,2783,191,6256,-1598,-66.66,24.88
2012,9,2, 2018-07-09 08:36:59,-4632,-1187,3347,-3375,2015,-1942,-66.8,24.64
2013,9,2, 2018-07-09 08:36:59,-5951,542,2583,-3484,-4633,1107,-66.54,24.37
2014,9,2, 2018-07-09 08:36:59,-8192,2252,-376,-425,-7569,1547,-66.16,24.26
2015,9,2, 2018-07-09 08:36:59,-8192,2274,-1056,5141,5838,-1547,-66.48,24.47
2016,9,2, 2018-07-09 08:36:59,-7138,1876,1215,3663,-3409,-1670,-66.34,24.7
2017,9,2, 2018-07-09 08:37:00,-6692,1184,746,3328,-1621,-2290,-66.17,24.86
2018,9,2, 2018-07-09 08:37:00,-6536,961,556,3041,-1499,-2132,-66.06,25.03
2019,9,2, 2018-07-09 08:37:00,-7231,1249,-1364,3306,-701,-2459,-65.98,25.17
2020,9,2, 2018-07-09 08:37:00,-6929,1373,-400,4916,-736,-2188,-65.92,25.43
2021,9,2, 2018-07-09 08:37:00,-6395,674,157,3849,-1695,-1980,-65.8,25.64
2022,9,2, 2018-07-09 08:37:00,-6763,-77,-544,1759,-1522,-1666,-65.68,25.72
2023,9,2, 2018-07-09 08:37:00,-6768,-206,-483,1142,-2028,-1049,-65.55,25.74
2024,9,2, 2018-07-09 08:37:00,-6758,674,-84,1450,-3208,-761,-65.35,25.78
2025,9,2, 2018-07-09 08:37:00,-7967,297,-1303,1889,-2277,11,-65.08,25.86
2026,9,2, 2018-07-09 08:37:00,-8192,604,-793,3160,611,-53,-65.14,26.07
2027,9,2, 2018-07-09 08:37:00,-8192,705,-648,1578,1088,276,-65.26,26.15
2028,9,2, 2018-07-09 08:37:00,-8192,-692,-1838,-247,1691,-167,-65.45,26.09
2029,9,2, 2018-07-09 08:37:00,-8192,205,-2771,428,721,-659,-65.57,26.04
2030,9,2, 2018-07-09 08:37:00,-8192,2701,-2620,1367,1268,399,-65.69,26.1
2031,9,2, 2018-07-09 08:37:00,-8192,1688,541,3626,-3499,-750,-65.63,26.24
2032,9,2, 2018-07-09 08:37:00,-8192,-1126,2022,-2204,-4229,-4088,-65.36,26.17
2033,9,2, 2018-07-09 08:37:00,-8192,-269,3016,-978,2187,-3152,-65.49,25.99
2034,9,2, 2018-07-09 08:37:00,-5829,1642,3449,1012,5364,-772,-65.76,26.01
2035,9,2, 2018-07-09 08:37:00,-4446,2323,1650,1188,3097,667,-66.05,26.08
2036,9,2, 2018-07-09 08:37:00,-7893,15,470,-489,-2325,5,-65.91,26.03
2037,9,2, 2018-07-09 08:37:00,-8192,-817,-974,-1909,6751,368,-66.2,25.88
2038,9,2, 2018-07-09 08:37:00,-7066,-462,1497,-4022,3466,2574,-66.51,25.6
2039,9,2, 2018-07-09 08:37:00,-5773,578,1205,-3900,609,3330,-66.53,25.3
2040,9,2, 2018-07-09 08:37:00,-5764,1816,1013,-3237,1035,1843,-66.53,25.08
2041,9,2, 2018-07-09 08:37:00,-6397,1776,96,-3867,2134,486,-66.62,24.83
2042,9,2, 2018-07-09 08:37:00,-7544,900,-586,-3744,2499,1340,-66.82,24.42
2043,9,2, 2018-07-09 08:37:00,-8192,751,-772,-2244,2886,1727,-67.04,24.22
2044,9,2, 2018-07-09 08:37:00,-7116,1702,-336,-2294,837,2025,-67.13,24.06
2045,9,2, 2018-07-09 08:37:00,-6974,1309,-879,-1804,-568,317,-67.05,23.86
2046,9,2, 2018-07-09 08:37:00,-7298,300,-897,-3528,-2578,-865,-66.9,23.62
2047,9,2, 2018-07-09 08:37:00,-8192,1152,-1380,-4049,-2188,-1021,-66.78,23.34
2048,9,2, 2018-07-09 08:37:00,-8192,1658,-1586,-3658,10,-20,-66.81,23.09
2049,9,2, 2018-07-09 08:37:00,-8192,2331,-1943,-1363,919,410,-66.93,22.86
2050,9,2, 2018-07-09 08:37:00,-7169,3213,-1811,327,1500,568,-67.02,22.86
2051,9,2, 2018-07-09 08:37:00,-8192,444,-2287,-2272,2489,3,-67.21,22.7
2052,9,2, 2018-07-09 08:37:00,-8192,650,-357,-1461,-1056,1746,-67.29,22.55
2053,9,2, 2018-07-09 08:37:00,-8192,3444,-1148,-505,-5028,5252,-67.02,22.48
2054,9,2, 2018-07-09 08:37:00,-8192,2616,1914,1869,-6279,5366,-66.72,22.58
2055,9,2, 2018-07-09 08:37:00,-6878,-54,3221,-158,4139,749,-66.79,22.52
2056,9,2, 2018-07-09 08:37:00,-5457,-2060,3309,-2968,4567,-3330,-67.08,22.31
2057,9,2, 2018-07-09 08:37:00,-5822,-1178,1559,-3012,-1643,-417,-66.99,22.05
2058,9,2, 2018-07-09 08:37:01,-8192,2537,-2425,-457,-935,2774,-66.91,21.92
2059,9,2, 2018-07-09 08:37:01,-7865,3173,-147,817,-1486,-1598,-67.03,21.98
2060,9,2, 2018-07-09 08:37:01,-6597,2136,381,2730,62,-3625,-66.98,22.13
2061,9,2, 2018-07-09 08:37:01,-5921,870,-248,3609,1527,-3427,-67.05,22.4
2062,9,2, 2018-07-09 08:37:01,-6436,673,-539,3469,1605,-2909,-67.12,22.58
2063,9,2, 2018-07-09 08:37:01,-7129,88,-545,3378,-1562,-2164,-67.06,22.84
2064,9,2, 2018-07-09 08:37:01,-7775,794,-1024,2291,-1439,-1469,-66.96,22.96
2065,9,2, 2018-07-09 08:37:01,-7110,-232,-227,2239,472,-1371,-66.99,23.06
2066,9,2, 2018-07-09 08:37:01,-6590,-399,-134,782,-2571,-426,-66.84,23.06
2067,9,2, 2018-07-09 08:37:01,-7648,-36,-1519,144,-4309,522,-66.47,23.01
2068,9,2, 2018-07-09 08:37:01,-8192,537,-1268,-613,-2302,723,-66.24,22.93
2069,9,2, 2018-07-09 08:37:01,-8192,488,-1614,239,1496,470,-66.34,22.89
2070,9,2, 2018-07-09 08:37:01,-8128,596,-1466,-673,265,12,-66.41,22.83
2071,9,2, 2018-07-09 08:37:01,-8192,-1649,-910,-3778,-1089,-564,-66.4,22.58
2072,9,2, 2018-07-09 08:37:01,-8192,-173,-2556,-1162,2323,-393,-66.55,22.39
2073,9,2, 2018-07-09 08:37:01,-8192,3942,-1233,2017,-2589,-1300,-66.54,22.47
2074,9,2, 2018-07-09 08:37:01,-8192,3318,-166,-419,-64,-3739,-66.5,22.49
2075,9,2, 2018-07-09 08:37:01,-7467,944,1911,2626,2225,-3310,-66.81,22.57
2076,9,2, 2018-07-09 08:37:01,-4391,701,1483,3601,-574,-816,-66.72,22.74
2077,9,2, 2018-07-09 08:37:01,-6252,-784,2985,1131,-3764,1544,-66.45,22.86
2078,9,2, 2018-07-09 08:37:01,-8192,74,1875,-1735,-5116,1458,-66.13,22.74
2079,9,2, 2018-07-09 08:37:01,-8192,1428,-470,-3645,2040,799,-66.2,22.52
2080,9,2, 2018-07-09 08:37:01,-6766,734,1112,-1970,4324,2990,-66.76,22.24
2081,9,2, 2018-07-09 08:37:01,-5170,1108,1189,-2371,1853,3446,-66.83,22.08
2082,9,2, 2018-07-09 08:37:01,-6216,222,975,-4087,-1340,1892,-66.78,21.79
2083,9,2, 2018-07-09 08:37:01,-7314,845,-380,-4075,-1197,1540,-66.66,21.5
2084,9,2, 2018-07-09 08:37:01,-7397,1137,284,-2159,-744,1190,-66.59,21.22
2085,9,2, 2018-07-09 08:37:01,-7452,1288,-397,-1905,-110,432,-66.56,21.08
2086,9,2, 2018-07-09 08:37:01,-7249,1498,-107,-2906,-578,-331,-66.57,20.85
2087,9,2, 2018-07-09 08:37:01,-7652,954,-677,-3834,-3034,-627,-66.41,20.59
2088,9,2, 2018-07-09 08:37:01,-8192,1337,-1150,-3373,-3878,-590,-66.21,20.35
2089,9,2, 2018-07-09 08:37:01,-8192,1872,-1765,-3806,336,-774,-66.21,20.12
2090,9,2, 2018-07-09 08:37:01,-8192,2168,-876,-4736,1654,-101,-66.35,19.83
2091,9,2, 2018-07-09 08:37:01,-8192,1145,-1509,-4158,4937,-1119,-66.65,19.55
2092,9,2, 2018-07-09 08:37:01,-7743,1369,-1571,-2885,8359,-1822,-67.16,19.32
2093,9,2, 2018-07-09 08:37:01,-5956,2722,-4198,-2707,-262,-1015,-67.39,19.15
2094,9,2, 2018-07-09 08:37:01,-7733,3448,-1726,-557,-2305,2372,-67.27,19.12
2095,9,2, 2018-07-09 08:37:01,-8192,2276,-1972,905,-6709,4910,-66.93,19.12
2096,9,2, 2018-07-09 08:37:01,-8192,3176,578,6427,-9414,6818,-66.47,19.5
2097,9,2, 2018-07-09 08:37:02,-8192,1744,3091,4132,-7139,3467,-65.99,19.8
2098,9,2, 2018-07-09 08:37:02,-6289,-793,3978,-722,2409,-862,-66.06,19.78
2099,9,2, 2018-07-09 08:37:02,-4748,-2347,1695,-6060,1791,-3233,-66.13,19.38
2100,9,2, 2018-07-09 08:37:02,-6148,-1582,62,-2842,535,-1118,-66.13,19.09
2101,9,2, 2018-07-09 08:37:02,-8192,-256,-1073,3188,4942,3147,-66.41,19.14
2102,9,2, 2018-07-09 08:37:02,-8192,3174,556,2235,-3312,-1161,-66.34,19.35
2103,9,2, 2018-07-09 08:37:02,-6653,1829,1431,1803,-69,-3072,-66.24,19.46
2104,9,2, 2018-07-09 08:37:02,-6161,546,792,1829,3304,-3622,-66.38,19.55
2105,9,2, 2018-07-09 08:37:02,-6345,-804,-426,3170,2766,-2460,-66.6,19.69
2106,9,2, 2018-07-09 08:37:02,-7537,704,-757,4041,-2279,-1523,-66.56,19.9
2107,9,2, 2018-07-09 08:37:02,-8192,1111,-39,3808,-2418,-653,-66.46,20.12
2108,9,2, 2018-07-09 08:37:02,-7334,101,56,1252,652,-999,-66.38,20.24
2109,9,2, 2018-07-09 08:37:02,-7003,-704,-494,693,1828,-642,-66.46,20.25
2110,9,2, 2018-07-09 08:37:02,-6594,476,-1095,84,-2464,149,-66.51,20.2
2111,9,2, 2018-07-09 08:37:02,-6482,1017,-1375,-495,-6682,1785,-66.1,20.14
2112,9,2, 2018-07-09 08:37:02,-8192,578,-1703,2132,-3656,1485,-65.85,20.2
2113,9,2, 2018-07-09 08:37:02,-8192,673,-411,602,-1279,1395,-65.72,20.28
2114,9,2, 2018-07-09 08:37:02,-8192,-705,-2136,-958,1587,1136,-65.84,20.18
2115,9,2, 2018-07-09 08:37:02,-8192,1424,-2062,852,2089,1090,-66.19,20.16
2116,9,2, 2018-07-09 08:37:02,-8192,3008,1237,3693,-6451,85,-65.96,20.33
2117,9,2, 2018-07-09 08:37:02,-8192,-126,2079,-227,39,-5047,-65.67,20.28
2118,9,2, 2018-07-09 08:37:02,-6026,1990,3484,1821,5675,-2462,-66,20.36
2119,9,2, 2018-07-09 08:37:02,-4642,2383,1269,3212,4140,455,-66.38,20.58
2120,9,2, 2018-07-09 08:37:02,-8192,-389,-726,-109,3199,-323,-66.51,20.68
2121,9,2, 2018-07-09 08:37:02,-8192,-437,168,-2950,5633,1062,-66.91,20.49
2122,9,2, 2018-07-09 08:37:02,-8192,-731,745,-3911,2863,3549,-67.16,20.19
2123,9,2, 2018-07-09 08:37:02,-5858,1327,1005,-3829,818,2877,-67.21,19.82
2124,9,2, 2018-07-09 08:37:02,-5557,1160,753,-4179,1483,949,-67.26,19.54
2125,9,2, 2018-07-09 08:37:02,-6026,739,354,-4870,1182,238,-67.29,19.23
2126,9,2, 2018-07-09 08:37:02,-7615,292,-283,-6291,-762,579,-67.25,18.63
2127,9,2, 2018-07-09 08:37:02,-8192,1254,-738,-5793,375,-24,-67.3,18.25
2128,9,2, 2018-07-09 08:37:02,-7121,1942,-194,-6165,-281,-1014,-67.3,17.87
2129,9,2, 2018-07-09 08:37:02,-6289,2160,-573,-5631,-1060,-827,-67.21,17.51
2130,9,2, 2018-07-09 08:37:02,-6667,1750,-1000,-4431,-518,-1342,-67.14,17.22
2131,9,2, 2018-07-09 08:37:02,-6865,1411,-1367,-3659,879,-2336,-67.14,16.97
2132,9,2, 2018-07-09 08:37:02,-8192,1818,-1506,-3649,-124,-1385,-67.23,16.77
2133,9,2, 2018-07-09 08:37:02,-8192,1696,-2139,-1298,-245,212,-67.23,16.66
2134,9,2, 2018-07-09 08:37:02,-8192,1741,-1572,-753,975,154,-67.33,16.6
2135,9,2, 2018-07-09 08:37:02,-8192,1064,-2374,-978,1365,-353,-67.45,16.53
2136,9,2, 2018-07-09 08:37:03,-8192,226,-2862,-1898,2114,-125,-67.61,16.39
2137,9,2, 2018-07-09 08:37:03,-8192,1404,1293,-8044,-5862,3520,-67.55,15.86
2138,9,2, 2018-07-09 08:37:03,-8192,4540,-2484,-678,-8689,8695,-66.98,15.7
2139,9,2, 2018-07-09 08:37:03,-7186,898,4005,9,4282,3348,-67.05,15.82
2140,9,2, 2018-07-09 08:37:03,-5273,-1653,4396,-6666,10339,-1654,-67.65,15.44
2141,9,2, 2018-07-09 08:37:03,-4269,-245,512,-4849,3335,91,-67.86,15.01
2142,9,2, 2018-07-09 08:37:03,-8192,4450,-230,-1635,-3643,-226,-67.82,14.93
2143,9,2, 2018-07-09 08:37:03,-8192,3033,-3370,3837,-2888,-1033,-67.63,15.04
2144,9,2, 2018-07-09 08:37:03,-7472,3121,738,5172,-6144,-2539,-67.33,15.4
2145,9,2, 2018-07-09 08:37:03,-5922,1528,1209,4461,-1327,-4283,-67.12,15.69
2146,9,2, 2018-07-09 08:37:03,-5600,556,2145,4835,688,-3781,-67.15,15.97
2147,9,2, 2018-07-09 08:37:03,-6209,-151,1590,3392,-5172,-2181,-66.87,16.16
2148,9,2, 2018-07-09 08:37:03,-7863,380,-1425,4635,-3391,-1658,-66.56,16.38
2149,9,2, 2018-07-09 08:37:03,-8192,306,-62,3083,4128,-1842,-66.83,16.58
2150,9,2, 2018-07-09 08:37:03,-7052,158,168,1893,-1174,-1070,-66.87,16.72
2151,9,2, 2018-07-09 08:37:03,-7581,-320,-829,-887,-1831,-595,-66.67,16.66
2152,9,2, 2018-07-09 08:37:03,-7442,-586,-1279,-1652,-815,-516,-66.62,16.51
2153,9,2, 2018-07-09 08:37:03,-7225,694,-889,-758,-3244,-670,-66.45,16.43
2154,9,2, 2018-07-09 08:37:03,-7578,1401,-1194,-393,-3961,-387,-66.2,16.38
2155,9,2, 2018-07-09 08:37:03,-8192,957,-1703,88,-1160,-463,-66.13,16.37
2156,9,2, 2018-07-09 08:37:03,-8192,1061,-1174,523,1175,-114,-66.28,16.4
2157,9,2, 2018-07-09 08:37:03,-8192,457,-2874,-147,2902,327,-66.56,16.33
2158,9,2, 2018-07-09 08:37:03,-8192,562,-1793,909,1396,1081,-66.73,16.35
2159,9,2, 2018-07-09 08:37:03,-8192,2684,594,3175,-9323,-1204,-66.23,16.62
2160,9,2, 2018-07-09 08:37:03,-8192,1159,1228,-743,-1069,-3588,-66.09,16.59
2161,9,2, 2018-07-09 08:37:03,-5297,1163,3894,4706,7619,-2808,-66.51,16.8
2162,9,2, 2018-07-09 08:37:03,-4154,611,3196,4651,-336,-1247,-66.54,17.06
2163,9,2, 2018-07-09 08:37:03,-8192,1032,1180,3708,-5379,-154,-66.23,17.29
2164,9,2, 2018-07-09 08:37:03,-8192,509,-578,-362,10320,-648,-66.72,17.29
2165,9,2, 2018-07-09 08:37:03,-8192,-477,781,-4739,3821,1287,-67.06,17
2166,9,2, 2018-07-09 08:37:03,-7396,83,848,-1894,2067,3542,-67.21,16.81
2167,9,2, 2018-07-09 08:37:03,-4981,440,905,-1483,1672,3580,-67.28,16.66
2168,9,2, 2018-07-09 08:37:03,-5671,373,279,-4051,718,1983,-67.27,16.33
2169,9,2, 2018-07-09 08:37:03,-7098,373,541,-6182,-496,1497,-67.25,15.78
2170,9,2, 2018-07-09 08:37:03,-7745,1752,-855,-5525,1211,520,-67.27,15.2
2171,9,2, 2018-07-09 08:37:03,-7082,2554,-808,-3725,1862,-745,-67.39,14.96
2172,9,2, 2018-07-09 08:37:03,-6636,2503,-1208,-2178,1388,-1445,-67.44,14.82
2173,9,2, 2018-07-09 08:37:03,-8049,1186,-1153,-2242,655,-1808,-67.52,14.68
2174,9,2, 2018-07-09 08:37:03,-8192,1070,-1878,-2885,-2396,-1127,-67.4,14.48
2175,9,2, 2018-07-09 08:37:04,-8192,1073,-1875,-2869,-258,-728,-67.4,14.29
2176,9,2, 2018-07-09 08:37:04,-8192,1699,-2515,-2517,943,-473,-67.5,14.13
2177,9,2, 2018-07-09 08:37:04,-7733,3136,-2630,-83,1661,819,-67.63,14.09
2178,9,2, 2018-07-09 08:37:04,-8192,909,36,-1504,-1274,859,-67.72,14.02
2179,9,2, 2018-07-09 08:37:04,-8192,2164,-269,110,-9064,4152,-67.29,13.96
2180,9,2, 2018-07-09 08:37:04,-8192,3391,1217,5699,-4306,6088,-67.01,14.27
2181,9,2, 2018-07-09 08:37:04,-6820,995,4016,1924,2956,2322,-66.93,14.58
2182,9,2, 2018-07-09 08:37:04,-4575,-1586,2851,-4247,4917,-3385,-67.19,14.35
2183,9,2, 2018-07-09 08:37:04,-5303,-2351,1672,-3081,-239,-3847,-67.19,14.06
2184,9,2, 2018-07-09 08:37:04,-6835,-88,-293,-2978,-1077,6013,-67.07,13.85
2185,9,2, 2018-07-09 08:37:04,-8192,5079,389,3045,6087,-1867,-67.57,14.04
2186,9,2, 2018-07-09 08:37:04,-7331,1999,470,1407,-3502,-1650,-67.3,14.16
2187,9,2, 2018-07-09 08:37:04,-5900,930,1093,1432,-604,-2938,-67.18,14.22
2188,9,2, 2018-07-09 08:37:04,-5521,533,507,1563,659,-3011,-67.16,14.31
2189,9,2, 2018-07-09 08:37:04,-6860,572,-596,2105,1409,-2491,-67.22,14.4
2190,9,2, 2018-07-09 08:37:04,-7441,853,-516,2925,-2297,-1286,-67.11,14.55
2191,9,2, 2018-07-09 08:37:04,-7548,808,-175,2389,-2054,-742,-66.97,14.69
2192,9,2, 2018-07-09 08:37:04,-7071,-118,-517,1873,-572,-803,-66.9,14.86
2193,9,2, 2018-07-09 08:37:04,-7683,-567,-1379,460,-2058,-528,-66.79,14.86
2194,9,2, 2018-07-09 08:37:04,-7581,885,-943,81,-2818,-183,-66.56,14.83
2195,9,2, 2018-07-09 08:37:04,-8192,1034,-1593,957,-116,-168,-66.52,14.88
2196,9,2, 2018-07-09 08:37:04,-8192,203,-781,-103,-266,-428,-66.56,14.87
2197,9,2, 2018-07-09 08:37:04,-8115,-117,-1092,-2038,1077,-492,-66.67,14.66
2198,9,2, 2018-07-09 08:37:04,-8192,1476,-3479,-831,2010,-201,-66.83,14.58
2199,9,2, 2018-07-09 08:37:04,-8192,3326,-2762,-15,-1026,1030,-66.87,14.58
2200,9,2, 2018-07-09 08:37:04,-8192,2614,-755,3222,-4074,50,-66.72,14.72
2201,9,2, 2018-07-09 08:37:04,-8192,62,1305,1102,-4814,-1241,-66.43,14.87
2202,9,2, 2018-07-09 08:37:04,-8192,-2483,1326,-135,3705,-2720,-66.58,14.76
2203,9,2, 2018-07-09 08:37:04,-5963,489,4839,4124,5210,-3130,-66.93,14.94
2204,9,2, 2018-07-09 08:37:04,-5254,3921,2634,668,-3567,610,-66.76,15.15
2205,9,2, 2018-07-09 08:37:04,-8192,1896,-795,845,-2963,-1306,-66.52,15.2
2206,9,2, 2018-07-09 08:37:04,-8192,-1059,-1416,794,15973,-1086,-67.36,15.2
2207,9,2, 2018-07-09 08:37:04,-7860,-1003,-566,-1898,3209,2457,-67.69,15.05
2208,9,2, 2018-07-09 08:37:05,-6173,-560,928,-1481,680,3610,-67.75,14.94
2209,9,2, 2018-07-09 08:37:05,-5747,-208,956,-4843,878,1208,-67.74,14.51
2210,9,2, 2018-07-09 08:37:05,-7032,752,262,-7968,-1984,884,-67.58,13.83
2211,9,2, 2018-07-09 08:37:05,-8091,1167,-164,-7658,-1385,1369,-67.5,13.33
2212,9,2, 2018-07-09 08:37:05,-8106,1855,-629,-6087,348,1311,-67.54,12.94
2213,9,2, 2018-07-09 08:37:05,-7096,2573,-1054,-3679,2123,-195,-67.69,12.55
2214,9,2, 2018-07-09 08:37:05,-7014,2115,-1146,-2546,2489,-1181,-67.81,12.39
2215,9,2, 2018-07-09 08:37:05,-7653,917,-1016,-3285,1969,-1716,-67.96,12.21
2216,9,2, 2018-07-09 08:37:05,-8058,619,-1001,-3940,-3018,-974,-67.81,11.94
