No, id_percobaan, id_pasien, waktu, accx, accY, accZ, gyroX, gyroY, gyroZ, roll, pitch
2607,2,2, 2018-07-09 06:12:33,-6084,388,83,-4488,4038,1813,-28.57,54.04
2608,2,2, 2018-07-09 06:12:33,-5940,890,-701,-5082,2175,1290,-28.76,53.64
2609,2,2, 2018-07-09 06:12:33,-6519,1294,-824,-5345,1856,-306,-28.98,53.02
2610,2,2, 2018-07-09 06:12:33,-6670,1821,-436,-5495,1412,-1300,-29.13,52.6
2611,2,2, 2018-07-09 06:12:33,-6976,2278,-226,-5065,383,-1406,-29.22,52.21
2612,2,2, 2018-07-09 06:12:34,-7008,1907,130,-4329,462,-1619,-29.31,51.86
2613,2,2, 2018-07-09 06:12:34,-6886,1600,-662,-3849,510,-1523,-29.4,51.54
2614,2,2, 2018-07-09 06:12:34,-7728,526,-1493,-3662,602,-926,-29.51,51.23
2615,2,2, 2018-07-09 06:12:34,-8192,-698,-1185,-5553,1035,-181,-29.69,50.81
2616,2,2, 2018-07-09 06:12:34,-7991,-220,-1261,-8561,494,144,-29.83,50.22
2617,2,2, 2018-07-09 06:12:34,-7456,2282,-1206,-11387,-624,23,-29.91,49.11
2618,2,2, 2018-07-09 06:12:34,-7371,3677,-951,-11872,-2027,-208,-29.89,48.34
2619,2,2, 2018-07-09 06:12:34,-7829,4934,-2496,-10169,-4110,-1204,-29.73,47.66
2620,2,2, 2018-07-09 06:12:34,-7429,4254,-1787,-5094,-2934,-2674,-29.7,47.24
2621,2,2, 2018-07-09 06:12:34,-8192,7992,6762,-1041,-16703,-873,-29.02,47.19
2622,2,2, 2018-07-09 06:12:34,-8192,4701,5278,9076,-22497,4387,-27.71,47.57
2623,2,2, 2018-07-09 06:12:34,-8192,2271,3902,12670,1737,-23,-27.6,48.28
2624,2,2, 2018-07-09 06:12:34,-8192,-1345,3922,8988,12082,-465,-28.42,48.78
2625,2,2, 2018-07-09 06:12:34,-8192,-4042,2953,2548,4470,-1613,-28.91,48.89
2626,2,2, 2018-07-09 06:12:34,-7094,-3092,1199,-2064,5275,-1742,-29.26,48.64
2627,2,2, 2018-07-09 06:12:34,-6549,774,2709,-1954,5792,5753,-29.66,48.44
2628,2,2, 2018-07-09 06:12:34,-7467,8192,4065,-1203,1440,-4839,-29.91,48.34
2629,2,2, 2018-07-09 06:12:34,-6353,4251,689,3609,4695,-3227,-30.16,48.51
2630,2,2, 2018-07-09 06:12:34,-6099,-1038,1203,6473,4683,-3599,-30.64,48.91
2631,2,2, 2018-07-09 06:12:34,-5189,-1168,1796,5150,4352,-5089,-30.95,49.12
2632,2,2, 2018-07-09 06:12:34,-5070,-1399,1785,2324,570,-4441,-31.06,49.19
2633,2,2, 2018-07-09 06:12:34,-6587,1710,108,760,-1366,250,-30.95,49.15
2634,2,2, 2018-07-09 06:12:34,-6908,2465,8,2953,1672,129,-31.13,49.26
2635,2,2, 2018-07-09 06:12:34,-6406,2179,148,5258,563,34,-31.23,49.48
2636,2,2, 2018-07-09 06:12:34,-6641,1909,-761,7385,-1376,326,-31.21,49.83
2637,2,2, 2018-07-09 06:12:34,-7067,1396,-1643,9201,-1199,933,-31.18,50.29
2638,2,2, 2018-07-09 06:12:34,-7352,446,-548,8435,135,974,-31.27,50.97
2639,2,2, 2018-07-09 06:12:34,-7083,187,815,6872,140,1660,-31.34,51.31
2640,2,2, 2018-07-09 06:12:34,-6892,-1414,2277,4576,-252,681,-31.38,51.51
2641,2,2, 2018-07-09 06:12:35,-7579,-1443,-336,640,-2036,656,-31.36,51.47
2642,2,2, 2018-07-09 06:12:35,-8192,4425,-5071,4482,1130,-1086,-31.61,51.61
2643,2,2, 2018-07-09 06:12:35,-8144,5098,-1848,9222,3422,-1664,-31.92,52.1
2644,2,2, 2018-07-09 06:12:35,-6584,2458,-1468,8607,263,-651,-32.04,52.58
2645,2,2, 2018-07-09 06:12:35,-8192,-209,-704,9140,-3705,977,-31.96,53.03
2646,2,2, 2018-07-09 06:12:35,-8192,-5390,8192,6258,-11984,-6079,-31.41,53.34
2647,2,2, 2018-07-09 06:12:35,-8192,-3686,6495,-6291,-15726,-7883,-30.24,53.04
2648,2,2, 2018-07-09 06:12:35,-8192,87,1542,-11019,16918,-1029,-31.14,52.24
2649,2,2, 2018-07-09 06:12:35,-7362,1520,2128,-7857,12228,9083,-32.15,51.57
2650,2,2, 2018-07-09 06:12:35,-1932,8192,-1746,13708,-7842,832,-31.9,52.22
2651,2,2, 2018-07-09 06:12:35,-5745,3819,2550,7807,-3748,-6762,-31.68,52.73
2652,2,2, 2018-07-09 06:12:35,-8192,-2069,6250,1869,5638,-3580,-32.06,52.85
2653,2,2, 2018-07-09 06:12:35,-8192,-6376,752,-2631,5417,-3098,-32.56,52.53
2654,2,2, 2018-07-09 06:12:35,-7222,-2818,-1157,-2686,3125,-1100,-32.8,52.19
2655,2,2, 2018-07-09 06:12:35,-5303,922,2028,-3270,4019,7912,-33.11,51.92
2656,2,2, 2018-07-09 06:12:35,-6870,7053,3705,-9134,-2754,1999,-33.13,51.06
2657,2,2, 2018-07-09 06:12:35,-6131,2436,-1212,-4211,1039,-1195,-33.07,50.7
2658,2,2, 2018-07-09 06:12:35,-8192,-2052,-108,-3521,669,-1564,-33.28,50.35
2659,2,2, 2018-07-09 06:12:35,-6959,54,952,-5947,1017,2471,-33.4,49.9
2660,2,2, 2018-07-09 06:12:35,-7157,1085,794,-6973,598,4210,-33.49,49.4
2661,2,2, 2018-07-09 06:12:35,-7744,2143,-1294,-7704,876,758,-33.66,48.58
2662,2,2, 2018-07-09 06:12:35,-7208,1621,-1597,-6705,3757,-705,-33.91,48.08
2663,2,2, 2018-07-09 06:12:35,-6339,1535,-530,-6033,3246,-966,-34.18,47.64
2664,2,2, 2018-07-09 06:12:35,-5867,1897,261,-4855,-76,-396,-34.26,47.05
2665,2,2, 2018-07-09 06:12:35,-5880,2015,864,-4238,-1798,-1161,-34.2,46.71
2666,2,2, 2018-07-09 06:12:35,-6307,2620,-230,-1936,-3533,-1936,-34.03,46.5
2667,2,2, 2018-07-09 06:12:35,-8192,1650,-1535,-549,-3603,-804,-33.88,46.4
2668,2,2, 2018-07-09 06:12:36,-8192,366,-1207,-2259,313,-78,-33.96,46.21
2669,2,2, 2018-07-09 06:12:36,-8192,-1022,-929,-6167,1442,715,-34.15,45.78
2670,2,2, 2018-07-09 06:12:36,-8139,-236,-2216,-8452,1807,-516,-34.36,45.19
2671,2,2, 2018-07-09 06:12:36,-7712,1912,-1475,-9963,2051,-1296,-34.56,44.53
2672,2,2, 2018-07-09 06:12:36,-8192,6517,4197,-9631,-6898,3112,-34.42,43.94
2673,2,2, 2018-07-09 06:12:36,-8192,8192,2638,-766,-18610,6926,-33.44,43.78
2674,2,2, 2018-07-09 06:12:36,-8192,3419,1569,9705,-1352,1944,-33.18,44.27
2675,2,2, 2018-07-09 06:12:36,-8192,271,3970,9297,10863,-2425,-33.88,44.81
2676,2,2, 2018-07-09 06:12:36,-7302,-2019,4544,704,5053,-2693,-34.39,44.84
2677,2,2, 2018-07-09 06:12:36,-6376,-3672,1956,-4726,51,-1145,-34.45,44.45
2678,2,2, 2018-07-09 06:12:36,-5422,-3211,803,-5099,3727,-1042,-34.64,43.99
2679,2,2, 2018-07-09 06:12:36,-4509,1174,1604,-2301,1591,8170,-34.81,43.73
2680,2,2, 2018-07-09 06:12:36,-6007,8192,2740,-2034,-6442,-2476,-34.61,43.6
2681,2,2, 2018-07-09 06:12:36,-7174,3362,473,4604,1475,-6896,-34.58,43.97
2682,2,2, 2018-07-09 06:12:36,-8127,-1973,926,6825,1343,-4921,-34.72,44.3
2683,2,2, 2018-07-09 06:12:36,-6918,-1223,831,4838,3620,-4649,-35,44.51
2684,2,2, 2018-07-09 06:12:36,-6128,502,509,2218,51,-1580,-35.13,44.63
2685,2,2, 2018-07-09 06:12:36,-6835,1832,154,2061,377,2067,-35.18,44.68
2686,2,2, 2018-07-09 06:12:36,-6680,2158,246,3895,656,313,-35.26,44.84
2687,2,2, 2018-07-09 06:12:36,-6690,1607,-204,5443,-436,-455,-35.29,45.08
2688,2,2, 2018-07-09 06:12:36,-6558,1239,-810,6918,-1385,-514,-35.25,45.42
2689,2,2, 2018-07-09 06:12:36,-6076,767,-285,7083,-2084,1097,-35.14,45.96
2690,2,2, 2018-07-09 06:12:36,-6912,310,-20,6630,-4265,1815,-34.94,46.28
2691,2,2, 2018-07-09 06:12:36,-8192,37,-440,6609,-3607,1519,-34.79,46.59
2692,2,2, 2018-07-09 06:12:36,-7917,797,236,6470,1519,1310,-34.95,47.06
2693,2,2, 2018-07-09 06:12:36,-7657,929,-114,4920,-277,1039,-35.09,47.44
2694,2,2, 2018-07-09 06:12:36,-8192,-348,-1153,3383,-107,-708,-35.17,47.57
2695,2,2, 2018-07-09 06:12:36,-8192,-387,-1633,2409,1067,-2159,-35.34,47.62
2696,2,2, 2018-07-09 06:12:37,-8028,1189,-2314,2980,-758,-1635,-35.41,47.71
2697,2,2, 2018-07-09 06:12:37,-8192,1318,414,3801,-4118,-63,-35.33,47.86
2698,2,2, 2018-07-09 06:12:37,-8192,-1174,7814,-2196,-17315,-7314,-34.59,47.73
2699,2,2, 2018-07-09 06:12:37,-8192,-202,1641,-7046,-7200,-6430,-33.91,47.25
2700,2,2, 2018-07-09 06:12:37,-8192,1222,-509,-4128,16405,-986,-34.8,46.86
2701,2,2, 2018-07-09 06:12:37,-7203,1778,2722,-1054,11576,4546,-35.74,46.67
2702,2,2, 2018-07-09 06:12:37,-4385,4503,2118,5620,-1727,910,-35.8,46.89
2703,2,2, 2018-07-09 06:12:37,-3884,4925,1617,10296,-204,126,-35.67,47.45
2704,2,2, 2018-07-09 06:12:37,-5950,2845,4434,8313,8104,-221,-36.11,47.98
2705,2,2, 2018-07-09 06:12:37,-7801,-2479,3260,-1377,754,-2322,-36.49,47.95
2706,2,2, 2018-07-09 06:12:37,-8192,-2549,-365,-3425,-2952,-1556,-36.42,47.61
2707,2,2, 2018-07-09 06:12:37,-8192,709,63,-3379,5667,4482,-36.77,47.3
2708,2,2, 2018-07-09 06:12:37,-7216,1962,1143,-3883,5304,7165,-37.2,47
2709,2,2, 2018-07-09 06:12:37,-6142,1537,295,-3437,2538,2137,-37.5,46.61
2710,2,2, 2018-07-09 06:12:37,-6026,-222,99,-4426,2047,1298,-37.66,46.26
2711,2,2, 2018-07-09 06:12:37,-5737,156,835,-5463,601,2075,-37.72,45.84
2712,2,2, 2018-07-09 06:12:37,-5773,1168,1420,-6049,-826,2968,-37.71,45.4
2713,2,2, 2018-07-09 06:12:37,-6687,1984,604,-7379,-3409,2994,-37.56,44.91
2714,2,2, 2018-07-09 06:12:37,-7608,2347,-1542,-7684,-1426,1574,-37.48,44.38
2715,2,2, 2018-07-09 06:12:37,-6987,1895,-1133,-6989,2920,731,-37.67,43.88
2716,2,2, 2018-07-09 06:12:37,-6423,1585,-225,-7124,2314,17,-37.86,43.39
2717,2,2, 2018-07-09 06:12:37,-6486,1823,-122,-7422,1139,-1114,-38.02,42.61
2718,2,2, 2018-07-09 06:12:37,-6631,2044,116,-5945,859,-1466,-38.12,42.17
2719,2,2, 2018-07-09 06:12:37,-6948,2085,326,-5583,-1495,-2031,-38.1,41.78
2720,2,2, 2018-07-09 06:12:37,-8192,1813,-1052,-5946,-3629,-2120,-37.97,41.36
2721,2,2, 2018-07-09 06:12:37,-8192,1700,-2756,-6672,-745,-1053,-37.98,40.91
2722,2,2, 2018-07-09 06:12:37,-8192,3093,-974,-6737,1547,-1188,-38.17,40.44
2723,2,2, 2018-07-09 06:12:37,-8192,5317,3162,-7132,-8329,1362,-37.95,40.01
2724,2,2, 2018-07-09 06:12:37,-8192,6005,1986,533,-9731,2651,-37.38,39.91
2725,2,2, 2018-07-09 06:12:37,-8192,1537,5922,1404,760,2195,-37.38,40.01
2726,2,2, 2018-07-09 06:12:38,-8192,-1633,3943,500,10200,-2037,-37.99,39.98
2727,2,2, 2018-07-09 06:12:38,-5616,-2547,3063,-6149,11699,-5748,-38.74,39.59
2728,2,2, 2018-07-09 06:12:38,-4605,-2554,2703,-12578,3645,-6078,-39.09,38.76
2729,2,2, 2018-07-09 06:12:38,-4389,241,1263,-8375,-168,2175,-39.08,38.11
2730,2,2, 2018-07-09 06:12:38,-8192,2081,2548,-5338,-2398,5430,-39.04,37.68
2731,2,2, 2018-07-09 06:12:38,-6021,8192,-150,4538,4452,-209,-39.13,37.95
2732,2,2, 2018-07-09 06:12:38,-6241,3884,1144,7826,3748,-5490,-39.45,38.38
2733,2,2, 2018-07-09 06:12:38,-7851,-1806,1298,9876,-56,-2337,-39.49,38.91
2734,2,2, 2018-07-09 06:12:38,-6995,-1458,651,8463,3892,-2693,-39.75,39.33
2735,2,2, 2018-07-09 06:12:38,-6149,-831,1302,6836,2373,-2877,-39.94,39.68
2736,2,2, 2018-07-09 06:12:38,-6022,1198,835,4760,641,-1009,-40.01,39.92
2737,2,2, 2018-07-09 06:12:38,-7001,2476,-86,4482,488,828,-40.07,40.13
2738,2,2, 2018-07-09 06:12:38,-7157,1724,-652,6411,1146,78,-40.18,40.45
2739,2,2, 2018-07-09 06:12:38,-6888,288,-980,7395,14,-862,-40.28,41.01
2740,2,2, 2018-07-09 06:12:38,-6656,-136,-1238,7212,-869,-739,-40.27,41.37
2741,2,2, 2018-07-09 06:12:38,-6321,325,-1025,6215,-1822,182,-40.19,41.69
2742,2,2, 2018-07-09 06:12:38,-6086,811,-588,5660,-3465,900,-40.02,41.96
2743,2,2, 2018-07-09 06:12:38,-6076,1198,-463,5867,-3846,1655,-39.8,42.24
2744,2,2, 2018-07-09 06:12:38,-6929,1522,653,6905,-4409,2686,-39.57,42.59
2745,2,2, 2018-07-09 06:12:38,-8192,-183,2168,5238,-4047,2450,-39.4,42.87
2746,2,2, 2018-07-09 06:12:38,-8192,-1564,-464,2397,-1340,650,-39.39,42.93
2747,2,2, 2018-07-09 06:12:38,-8192,1993,-3239,4234,3993,-935,-39.63,43.1
2748,2,2, 2018-07-09 06:12:38,-8192,3704,-1935,6568,1771,-879,-39.88,43.45
2749,2,2, 2018-07-09 06:12:38,-8192,-341,4918,2105,-8041,-1190,-39.6,43.59
2750,2,2, 2018-07-09 06:12:38,-8192,-1816,2168,-2595,-18199,-7809,-38.58,43.33
399,2,2, 2018-07-09 08:35:35,-5487,1411,385,2069,968,-4168,-24.93,-3.24
400,2,2, 2018-07-09 08:35:35,-5470,718,43,943,-302,-4132,-25.05,-3.04
401,2,2, 2018-07-09 08:35:35,-6698,286,-791,3499,-2957,-2421,-24.92,-2.84
402,2,2, 2018-07-09 08:35:35,-6698,495,-558,3324,-2837,-1522,-24.79,-2.62
403,2,2, 2018-07-09 08:35:35,-7054,406,-800,3515,-2064,-1158,-24.73,-2.39
404,2,2, 2018-07-09 08:35:35,-7010,-146,-995,2078,-2702,-1181,-24.65,-2.24
405,2,2, 2018-07-09 08:35:35,-7020,-555,-1008,488,-3561,-926,-24.51,-2.19
406,2,2, 2018-07-09 08:35:35,-6968,-1133,-1269,-1786,-2960,-950,-24.38,-2.28
407,2,2, 2018-07-09 08:35:35,-7258,-288,-1233,-2448,-2565,-513,-24.3,-2.43
408,2,2, 2018-07-09 08:35:35,-7729,457,-723,-2968,-3765,1018,-24.09,-2.68
409,2,2, 2018-07-09 08:35:35,-8192,686,-1214,-1982,-1721,1473,-24.08,-2.8
410,2,2, 2018-07-09 08:35:35,-8192,77,-867,-3242,994,828,-24.24,-2.96
411,2,2, 2018-07-09 08:35:35,-8192,-1402,-1337,-3460,2120,-349,-24.49,-3.2
412,2,2, 2018-07-09 08:35:35,-8192,3195,-4608,-33,3084,611,-24.88,-3.23
413,2,2, 2018-07-09 08:35:35,-8192,3944,-2174,1365,2632,2043,-25.18,-3.11
414,2,2, 2018-07-09 08:35:35,-8192,-412,-154,4978,-3270,-2223,-25.22,-2.84
415,2,2, 2018-07-09 08:35:35,-8192,-1331,-932,250,-1182,-3786,-25.14,-2.73
416,2,2, 2018-07-09 08:35:35,-7162,-433,1411,-2975,7182,-1408,-25.64,-2.9
417,2,2, 2018-07-09 08:35:35,-4633,412,3153,370,3915,364,-25.91,-2.92
418,2,2, 2018-07-09 08:35:35,-4909,476,4070,881,-1878,705,-25.92,-2.86
419,2,2, 2018-07-09 08:35:35,-8047,2148,1622,1541,-9691,1151,-25.49,-2.74
420,2,2, 2018-07-09 08:35:35,-8192,2653,-4642,-113,8276,-1759,-25.75,-2.65
421,2,2, 2018-07-09 08:35:35,-7925,-147,1234,-2191,6855,605,-26.63,-2.79
422,2,2, 2018-07-09 08:35:35,-5762,-835,1343,-1784,3750,1902,-26.93,-2.91
423,2,2, 2018-07-09 08:35:35,-5255,-286,596,-1845,75,2896,-26.99,-3.01
424,2,2, 2018-07-09 08:35:35,-5817,670,-217,-3266,-2966,2466,-26.91,-3.17
425,2,2, 2018-07-09 08:35:35,-7172,1100,-374,-3514,-2313,1847,-26.81,-3.36
426,2,2, 2018-07-09 08:35:35,-7572,1275,-259,-3581,-803,600,-26.83,-3.56
427,2,2, 2018-07-09 08:35:35,-7037,1656,-255,-3733,-270,350,-26.88,-3.76
428,2,2, 2018-07-09 08:35:35,-7083,1721,-1838,-2679,-802,-62,-26.97,-3.98
429,2,2, 2018-07-09 08:35:35,-6943,1945,-1375,-1557,-1410,-353,-26.96,-4.05
430,2,2, 2018-07-09 08:35:35,-7670,2019,-1828,-812,-1728,-355,-26.94,-4.08
431,2,2, 2018-07-09 08:35:35,-8192,2059,-1849,-177,-1775,-126,-26.95,-4.06
432,2,2, 2018-07-09 08:35:35,-8192,1459,-2181,-719,-49,-145,-27.05,-4.07
433,2,2, 2018-07-09 08:35:35,-7953,777,-1778,-695,113,-286,-27.17,-4.09
434,2,2, 2018-07-09 08:35:35,-8020,2331,-2687,-489,-698,-23,-27.24,-4.07
435,2,2, 2018-07-09 08:35:35,-8192,1491,-3421,-293,670,414,-27.39,-4.07
436,2,2, 2018-07-09 08:35:35,-8192,541,52,-1564,-576,1587,-27.68,-4.11
437,2,2, 2018-07-09 08:35:35,-8192,3213,-708,-45,-5918,5916,-27.49,-4.14
438,2,2, 2018-07-09 08:35:35,-8192,3276,747,4498,-3516,7353,-27.4,-3.85
439,2,2, 2018-07-09 08:35:35,-7869,529,3683,2380,4777,2093,-27.69,-3.63
440,2,2, 2018-07-09 08:35:35,-5189,-1887,2669,-2785,6053,-3604,-28.11,-3.76
441,2,2, 2018-07-09 08:35:35,-4663,-1075,733,-2622,2891,-2678,-28.33,-3.95
442,2,2, 2018-07-09 08:35:36,-8192,235,-1225,-2157,-1734,4034,-28.52,-4.06
443,2,2, 2018-07-09 08:35:36,-8192,2997,-1255,2974,-1954,917,-28.5,-3.89
444,2,2, 2018-07-09 08:35:36,-7844,3041,-234,5132,-1452,-2277,-28.5,-3.54
445,2,2, 2018-07-09 08:35:36,-6380,857,723,4483,-806,-3929,-28.49,-3.22
446,2,2, 2018-07-09 08:35:36,-6213,-51,457,2965,-2045,-3561,-28.43,-3.01
447,2,2, 2018-07-09 08:35:36,-6527,161,-459,2564,-3661,-2285,-28.26,-2.86
448,2,2, 2018-07-09 08:35:36,-7252,952,-915,4064,-1931,-1843,-28.17,-2.62
449,2,2, 2018-07-09 08:35:36,-7143,305,-508,4782,-1355,-1623,-28.17,-2.32
450,2,2, 2018-07-09 08:35:36,-7081,-70,-275,5346,-1842,-989,-28.13,-1.99
451,2,2, 2018-07-09 08:35:36,-6837,131,-510,3052,-1984,-176,-28.07,-1.76
452,2,2, 2018-07-09 08:35:36,-6635,138,-823,672,-1572,274,-28,-1.67
453,2,2, 2018-07-09 08:35:36,-6596,-183,-876,335,-1669,103,-27.96,-1.63
