No, waktu, accx, accY, accZ,Akselerasi
1, 2018-07-09 08:37:18,-7427,1685,568,7636.895835
2, 2018-07-09 08:37:18,-7427,1804,274,7647.863819
3, 2018-07-09 08:37:18,-8001,1727,-15,8185.276721
4, 2018-07-09 08:37:18,-8192,1328,48,8299.081395
5, 2018-07-09 08:37:18,-7568,1290,1050,7748.627233
6, 2018-07-09 08:37:18,-7423,1448,608,7587.311579
7, 2018-07-09 08:37:18,-7641,1028,923,7764.894977
8, 2018-07-09 08:37:18,-7999,-188,1608,8161.18919
9, 2018-07-09 08:37:18,-8192,-143,1201,8280.803946
10, 2018-07-09 08:37:18,-8192,1307,-250,8299.374254
11, 2018-07-09 08:37:18,-8192,2310,-585,8531.540834
12, 2018-07-09 08:37:18,-8148,1832,-633,8375.369663
13, 2018-07-09 08:37:18,-8057,1170,-173,8143.345627
14, 2018-07-09 08:37:18,-7342,539,172,7363.76731
15, 2018-07-09 08:37:18,-7048,662,-87,7079.556271
16, 2018-07-09 08:37:18,-7827,957,-511,7901.828839
17, 2018-07-09 08:37:18,-8135,972,-173,8194.689622
18, 2018-07-09 08:37:18,-7490,323,-128,7498.053948
19, 2018-07-09 08:37:18,-7457,716,-598,7515.125348
20, 2018-07-09 08:37:18,-7440,1175,-558,7552.853037
21, 2018-07-09 08:37:18,-7501,855,-428,7561.693593
22, 2018-07-09 08:37:18,-7498,858,-711,7580.348871
23, 2018-07-09 08:37:18,-7918,1008,-745,8016.596098
24, 2018-07-09 08:37:18,-7734,692,-72,7765.230454
25, 2018-07-09 08:37:18,-7973,464,-606,8009.448233
26, 2018-07-09 08:37:18,-8192,318,-789,8236.049356
27, 2018-07-09 08:37:18,-8192,425,-1071,8272.637427
28, 2018-07-09 08:37:18,-8192,227,-1216,8284.868677
29, 2018-07-09 08:37:18,-8192,217,-1587,8347.126571
30, 2018-07-09 08:37:18,-8192,1057,-2036,8507.138708
31, 2018-07-09 08:37:18,-8192,1981,-2175,8704.243218
32, 2018-07-09 08:37:18,-8192,233,-1621,8354.08846
33, 2018-07-09 08:37:18,-8192,-348,441,8211.239188
34, 2018-07-09 08:37:18,-8192,-238,1029,8259.803206
35, 2018-07-09 08:37:18,-7952,433,2426,8325.098738
36, 2018-07-09 08:37:19,-5365,1133,2095,5869.918143
37, 2018-07-09 08:37:19,-3836,1227,2727,4863.841486
38, 2018-07-09 08:37:19,-5631,-375,4505,7221.067165
39, 2018-07-09 08:37:19,-8192,-299,3457,8896.578781
40, 2018-07-09 08:37:19,-8192,488,-2519,8584.425956
41, 2018-07-09 08:37:19,-7664,-353,-50,7672.28812
42, 2018-07-09 08:37:19,-7126,-200,700,7163.091232
43, 2018-07-09 08:37:19,-6512,716,197,6554.205444
44, 2018-07-09 08:37:19,-6228,1622,605,6464.123529
45, 2018-07-09 08:37:19,-6608,1548,313,6794.110464
46, 2018-07-09 08:37:19,-7427,977,-473,7505.903477
47, 2018-07-09 08:37:19,-7624,1011,-671,7719.957124
48, 2018-07-09 08:37:19,-6913,1464,-564,7088.791223
49, 2018-07-09 08:37:19,-6695,1725,-249,6918.139273
50, 2018-07-09 08:37:19,-6994,1393,-350,7139.956933
51, 2018-07-09 08:37:19,-7576,1587,-765,7778.146952
52, 2018-07-09 08:37:19,-8192,1944,-2063,8668.562107
53, 2018-07-09 08:37:19,-8192,1692,-2113,8627.658837
54, 2018-07-09 08:37:19,-8192,1844,-2054,8644.542556
55, 2018-07-09 08:37:19,-7836,2025,-2318,8418.826819
56, 2018-07-09 08:37:19,-8192,1561,-2040,8585.288871
57, 2018-07-09 08:37:19,-8192,1689,790,8401.52873
58, 2018-07-09 08:37:19,-8192,3504,-571,8928.209283
59, 2018-07-09 08:37:19,-8192,2631,2751,9033.217921
60, 2018-07-09 08:37:19,-5187,-1104,3531,6371.1652
61, 2018-07-09 08:37:19,-4474,-2130,2808,5695.475397
62, 2018-07-09 08:37:19,-4977,-1158,1620,5360.587001
63, 2018-07-09 08:37:19,-8192,-2542,-2984,9081.568367
64, 2018-07-09 08:37:19,-8192,5226,-701,9742.245172
65, 2018-07-09 08:37:19,-6818,2206,888,7220.810481
66, 2018-07-09 08:37:19,-5600,760,1091,5755.682496
67, 2018-07-09 08:37:19,-6095,396,-704,6148.288949
68, 2018-07-09 08:37:19,-6466,535,-484,6506.123039
69, 2018-07-09 08:37:19,-6993,1043,-106,7071.147997
70, 2018-07-09 08:37:19,-7512,892,-524,7582.900764
71, 2018-07-09 08:37:19,-7048,253,-332,7060.349637
72, 2018-07-09 08:37:19,-6631,-455,-192,6649.364631
73, 2018-07-09 08:37:19,-8192,-480,-1194,8292.460431
74, 2018-07-09 08:37:19,-8192,1387,-687,8336.942005
75, 2018-07-09 08:37:19,-8192,691,-1183,8305.771126
76, 2018-07-09 08:37:19,-8098,-774,-2239,8437.404874
77, 2018-07-09 08:37:20,-8192,2661,-3493,9294.666966
78, 2018-07-09 08:37:20,-8192,3486,-1339,9002.998445
79, 2018-07-09 08:37:20,-8192,-95,2276,8502.826883
80, 2018-07-09 08:37:20,-8192,-1970,2256,8722.344868
81, 2018-07-09 08:37:20,-5969,-1313,3793,7193.036841
82, 2018-07-09 08:37:20,-5610,1753,4238,7246.085357
83, 2018-07-09 08:37:20,-8192,3835,-1478,9165.18265
84, 2018-07-09 08:37:20,-8192,1799,559,8405.816201
85, 2018-07-09 08:37:20,-7488,-397,367,7507.492391
86, 2018-07-09 08:37:20,-5059,-1025,889,5237.788369
87, 2018-07-09 08:37:20,-3541,-244,1384,3809.681483
88, 2018-07-09 08:37:20,-5215,1482,2343,5906.115305
89, 2018-07-09 08:37:20,-8152,2025,-1039,8463.760984
90, 2018-07-09 08:37:20,-8192,2189,-577,8499.03018
91, 2018-07-09 08:37:20,-7843,2253,-1136,8238.880628
92, 2018-07-09 08:37:20,-6707,2311,-1205,7195.595528
93, 2018-07-09 08:37:20,-6037,2140,-1040,6488.957466
94, 2018-07-09 08:37:20,-6569,1972,-811,6906.393125
95, 2018-07-09 08:37:20,-7688,1474,-1309,7936.718528
96, 2018-07-09 08:37:20,-8192,1209,-1293,8381.073559
97, 2018-07-09 08:37:20,-8173,1852,-1264,8474.994336
98, 2018-07-09 08:37:20,-8192,2113,-1875,8665.405819
99, 2018-07-09 08:37:20,-8192,945,-2978,8767.575092
100, 2018-07-09 08:37:20,-8192,-1562,-1663,8503.780159
101, 2018-07-09 08:37:20,-8192,1138,2669,8690.654118
102, 2018-07-09 08:37:20,-8192,5757,-1791,10171.50893
103, 2018-07-09 08:37:20,-8192,3678,3539,9651.998187
104, 2018-07-09 08:37:20,-5944,-632,4039,7214.158371
105, 2018-07-09 08:37:20,-5604,-3052,3905,7481.212803
106, 2018-07-09 08:37:20,-6388,-1946,1669,6883.242041
107, 2018-07-09 08:37:20,-8192,-2275,-4982,9854.177439
108, 2018-07-09 08:37:20,-7769,8192,-614,11306.77766
109, 2018-07-09 08:37:20,-6286,2628,1568,6991.337783
110, 2018-07-09 08:37:20,-4917,555,1983,5330.778836
111, 2018-07-09 08:37:20,-5030,-1484,-620,5280.866974
112, 2018-07-09 08:37:20,-6992,-103,-561,7015.225869
113, 2018-07-09 08:37:20,-7168,1027,296,7247.245615
114, 2018-07-09 08:37:20,-7277,1662,410,7475.631947
115, 2018-07-09 08:37:20,-7175,416,56,7187.267701
116, 2018-07-09 08:37:21,-7874,-1222,-2020,8220.313863
117, 2018-07-09 08:37:21,-8192,105,-1454,8320.697387
118, 2018-07-09 08:37:21,-8192,978,-1703,8424.105709
119, 2018-07-09 08:37:21,-8000,1679,-1437,8299.639149
120, 2018-07-09 08:37:21,-7087,-349,-667,7126.868808
121, 2018-07-09 08:37:21,-8192,-1750,-2224,8667.037556
122, 2018-07-09 08:37:21,-8192,3227,-3099,9334.14131
123, 2018-07-09 08:37:21,-8192,3787,-52,9025.128088
124, 2018-07-09 08:37:21,-8192,-352,2301,8516.300194
125, 2018-07-09 08:37:21,-8192,-3063,1466,8867.919091
126, 2018-07-09 08:37:21,-4297,201,2469,4959.896269
127, 2018-07-09 08:37:21,-3379,2847,2497,5075.239797
128, 2018-07-09 08:37:21,-5964,3149,2260,7112.882468
129, 2018-07-09 08:37:21,-8192,-775,-1703,8402.957694
130, 2018-07-09 08:37:21,-8192,-713,-484,8237.201527
131, 2018-07-09 08:37:21,-5786,354,274,5803.291135
132, 2018-07-09 08:37:21,-4932,1363,94,5117.736707
133, 2018-07-09 08:37:21,-5089,1632,232,5349.314816
134, 2018-07-09 08:37:21,-7193,950,-99,7256.13878
135, 2018-07-09 08:37:21,-8175,825,-848,8260.166705
136, 2018-07-09 08:37:21,-7179,1906,-360,7436.429049
137, 2018-07-09 08:37:21,-6490,2296,-866,6938.419993
138, 2018-07-09 08:37:21,-6975,2081,-1753,7486.934954
139, 2018-07-09 08:37:21,-8064,1729,-1127,8323.921311
140, 2018-07-09 08:37:21,-8192,1168,-1788,8465.815495
141, 2018-07-09 08:37:21,-8192,2150,-1656,8629.814598
142, 2018-07-09 08:37:21,-8192,2484,-1171,8640.044039
143, 2018-07-09 08:37:21,-8192,2240,-2767,8932.119177
144, 2018-07-09 08:37:21,-8192,2449,-747,8582.801058
145, 2018-07-09 08:37:21,-8192,2024,168,8440.003791
146, 2018-07-09 08:37:21,-8192,2514,1616,8720.121329
147, 2018-07-09 08:37:21,-6805,6,3805,7796.543208
148, 2018-07-09 08:37:21,-4526,-1240,3903,6103.743523
149, 2018-07-09 08:37:21,-4907,-2060,1727,5595.067292
150, 2018-07-09 08:37:21,-8192,-149,-3053,8743.676229
151, 2018-07-09 08:37:21,-8192,4548,-499,9383.078866
152, 2018-07-09 08:37:21,-7880,3043,189,8449.258547
153, 2018-07-09 08:37:21,-5754,1266,1060,5986.223517
154, 2018-07-09 08:37:21,-5203,455,850,5291.571978
155, 2018-07-09 08:37:21,-5735,-221,402,5753.318173
156, 2018-07-09 08:37:21,-7040,1304,-783,7202.437435
157, 2018-07-09 08:37:22,-7158,1148,247,7253.680238
158, 2018-07-09 08:37:22,-7071,550,139,7093.719899
159, 2018-07-09 08:37:22,-7125,-201,-207,7130.839712
160, 2018-07-09 08:37:22,-7593,-169,-201,7597.539799
161, 2018-07-09 08:37:22,-8192,-188,-909,8244.42169
162, 2018-07-09 08:37:22,-8192,875,-1041,8304.105611
163, 2018-07-09 08:37:22,-8192,203,-1027,8258.61986
164, 2018-07-09 08:37:22,-8192,-930,-1236,8336.753565
165, 2018-07-09 08:37:22,-8192,2072,-2933,8944.525532
166, 2018-07-09 08:37:22,-8192,2960,-674,8736.40315
167, 2018-07-09 08:37:22,-8192,1025,1371,8368.938403
168, 2018-07-09 08:37:22,-8192,-1518,1827,8529.426534
169, 2018-07-09 08:37:22,-6380,616,2816,7000.97936
170, 2018-07-09 08:37:22,-4756,2430,2777,6019.648246
171, 2018-07-09 08:37:22,-8192,1046,-679,8286.375625
172, 2018-07-09 08:37:22,-8192,-602,-795,8252.471933
173, 2018-07-09 08:37:22,-7439,465,524,7471.915551
174, 2018-07-09 08:37:22,-5050,1428,918,5327.701944
175, 2018-07-09 08:37:22,-4782,1626,964,5142.051731
176, 2018-07-09 08:37:22,-6206,893,373,6281.004219
177, 2018-07-09 08:37:22,-7690,496,-71,7706.306314
178, 2018-07-09 08:37:22,-7693,1077,-606,7791.624606
179, 2018-07-09 08:37:22,-7603,1952,-1242,7947.230776
180, 2018-07-09 08:37:22,-6726,2368,-904,7187.747631
181, 2018-07-09 08:37:22,-6868,1596,-596,7076.146974
182, 2018-07-09 08:37:22,-7367,1187,-613,7487.150793
183, 2018-07-09 08:37:22,-7988,1310,-978,8153.571487
184, 2018-07-09 08:37:22,-8192,1166,-1681,8443.588159
185, 2018-07-09 08:37:22,-8192,1617,-1223,8439.151735
186, 2018-07-09 08:37:22,-8192,1963,-1570,8568.963356
187, 2018-07-09 08:37:22,-8192,2771,-2454,8989.406043
188, 2018-07-09 08:37:22,-8192,2204,-1961,8707.008729
189, 2018-07-09 08:37:22,-8192,1200,-4,8279.425101
190, 2018-07-09 08:37:22,-8192,2991,-951,8772.647605
191, 2018-07-09 08:37:22,-8192,3417,2039,9107.264902
192, 2018-07-09 08:37:22,-8168,338,3457,8875.884012
193, 2018-07-09 08:37:22,-6385,-2419,2556,7290.60505
194, 2018-07-09 08:37:23,-6353,-1877,1366,6763.852009
195, 2018-07-09 08:37:23,-8192,51,-779,8229.113318
196, 2018-07-09 08:37:23,-8192,3958,-846,9137.305073
197, 2018-07-09 08:37:23,-7478,2664,903,7989.542478
198, 2018-07-09 08:37:23,-5658,860,1130,5833.477865
199, 2018-07-09 08:37:23,-4873,-22,86,4873.80847
200, 2018-07-09 08:37:23,-5548,-426,1,5564.331137
201, 2018-07-09 08:37:23,-6838,79,-761,6880.669008
202, 2018-07-09 08:37:23,-7670,607,-107,7694.725336
203, 2018-07-09 08:37:23,-7698,433,-212,7713.082198
204, 2018-07-09 08:37:23,-7128,-637,-1195,7255.492954
205, 2018-07-09 08:37:23,-7101,170,-1034,7177.900598
206, 2018-07-09 08:37:23,-7648,622,-865,7721.852951
207, 2018-07-09 08:37:23,-8192,554,-975,8268.397971
208, 2018-07-09 08:37:23,-8192,1108,-726,8298.409727
209, 2018-07-09 08:37:23,-8192,743,-707,8255.953125
210, 2018-07-09 08:37:23,-8192,1990,-3535,9141.399729
211, 2018-07-09 08:37:23,-8192,2534,-1667,8735.497067
212, 2018-07-09 08:37:23,-8192,1193,586,8299.127002
213, 2018-07-09 08:37:23,-8192,-337,816,8239.434993
214, 2018-07-09 08:37:23,-6937,-1544,1608,7286.39616
215, 2018-07-09 08:37:23,-4160,2101,3073,5582.394647
216, 2018-07-09 08:37:23,-6526,1666,2684,7250.385369
217, 2018-07-09 08:37:23,-8192,381,-1329,8307.843643
218, 2018-07-09 08:37:23,-8192,-1130,-287,8274.547299
219, 2018-07-09 08:37:23,-6811,-103,654,6843.102074
220, 2018-07-09 08:37:23,-5262,1077,608,5405.389625
221, 2018-07-09 08:37:23,-5640,1515,604,5871.085164
222, 2018-07-09 08:37:23,-6531,679,-35,6566.29477
223, 2018-07-09 08:37:23,-7523,429,-537,7554.332466
224, 2018-07-09 08:37:23,-7329,1110,-459,7426.777363
225, 2018-07-09 08:37:23,-7099,2196,-1247,7534.800993
226, 2018-07-09 08:37:23,-6755,2565,-1700,7422.886905
227, 2018-07-09 08:37:23,-7754,2149,-1739,8232.061589
228, 2018-07-09 08:37:23,-8192,1358,-1740,8484.139791
229, 2018-07-09 08:37:23,-8192,1091,-1827,8463.868737
230, 2018-07-09 08:37:23,-8192,2107,-1632,8614.623439
231, 2018-07-09 08:37:23,-7594,2559,-2582,8419.266061
232, 2018-07-09 08:37:23,-7913,1410,-1696,8214.626285
233, 2018-07-09 08:37:24,-8192,2318,763,8547.757425
234, 2018-07-09 08:37:24,-8192,2537,-89,8576.313544
235, 2018-07-09 08:37:24,-8192,1764,2543,8757.134748
236, 2018-07-09 08:37:24,-5915,-1462,4088,7337.3301
237, 2018-07-09 08:37:24,-4257,-2125,3057,5655.34464
238, 2018-07-09 08:37:24,-5283,-74,1381,5461.018769
239, 2018-07-09 08:37:24,-8192,5427,-4347,10745.11992
240, 2018-07-09 08:37:24,-8192,4294,151,9250.410856
241, 2018-07-09 08:37:24,-7184,3001,669,7814.308543
242, 2018-07-09 08:37:24,-5519,688,678,5602.891129
243, 2018-07-09 08:37:24,-5888,-573,-154,5917.819615
244, 2018-07-09 08:37:24,-5690,6,-963,5770.918904
245, 2018-07-09 08:37:24,-6570,902,-670,6665.388511
246, 2018-07-09 08:37:24,-7325,1350,-461,7462.616565
247, 2018-07-09 08:37:24,-7414,241,-914,7474.013179
248, 2018-07-09 08:37:24,-7700,-409,-1646,7884.579697
249, 2018-07-09 08:37:24,-7821,-147,-957,7880.70422
250, 2018-07-09 08:37:24,-7902,204,-1063,7975.787673
251, 2018-07-09 08:37:24,-7570,1191,-986,7726.291284
252, 2018-07-09 08:37:24,-8192,87,-260,8196.586668
253, 2018-07-09 08:37:24,-8192,352,-1970,8432.892031
254, 2018-07-09 08:37:24,-8192,1776,-1320,8485.601923
255, 2018-07-09 08:37:24,-8192,2781,-669,8677.003285
256, 2018-07-09 08:37:24,-8192,335,-379,8207.601964
257, 2018-07-09 08:37:24,-7915,-500,648,7957.206105
258, 2018-07-09 08:37:24,-6814,-412,1445,6977.704852
259, 2018-07-09 08:37:24,-5572,1397,1645,5975.350868
260, 2018-07-09 08:37:24,-5862,2433,2328,6760.334089
261, 2018-07-09 08:37:24,-8192,929,514,8260.514572
262, 2018-07-09 08:37:24,-8192,600,-520,8230.386625
263, 2018-07-09 08:37:24,-8192,169,-681,8221.99404
264, 2018-07-09 08:37:24,-6971,1050,-280,7055.192485
265, 2018-07-09 08:37:24,-5961,1524,-278,6159.008118
266, 2018-07-09 08:37:24,-4907,1815,-150,5234.059037
267, 2018-07-09 08:37:25,-6501,760,-1028,6625.510169
268, 2018-07-09 08:37:25,-7519,1249,-1756,7821.694062
269, 2018-07-09 08:37:25,-7815,1868,-1504,8174.69663
270, 2018-07-09 08:37:25,-6389,2295,-1186,6891.512316
271, 2018-07-09 08:37:25,-6089,1600,-797,6345.953829
272, 2018-07-09 08:37:25,-6501,977,-800,6622.501793
273, 2018-07-09 08:37:25,-7643,1136,-1264,7829.664169
274, 2018-07-09 08:37:25,-8192,1650,-1655,8518.825565
275, 2018-07-09 08:37:25,-8192,3487,-571,8921.551098
276, 2018-07-09 08:37:25,-8192,2071,474,8463.012525
277, 2018-07-09 08:37:25,-8192,1277,-1900,8505.856394
278, 2018-07-09 08:37:25,-8192,-946,-6010,10204.11094
