No, waktu, accx, accY, accZ,Akselerasi
1, 2018-07-09 06:14:42,-6457,2441,743,6942.865331
2, 2018-07-09 06:14:42,-7211,2977,-900,7853.091748
3, 2018-07-09 06:14:42,-8192,2294,-2197,8786.245444
4, 2018-07-09 06:14:42,-8192,1710,-67,8368.838211
5, 2018-07-09 06:14:42,-8192,4538,6061,11155.17947
6, 2018-07-09 06:14:43,-8192,5932,568,10130.15854
7, 2018-07-09 06:14:43,-8192,1950,796,8458.426568
8, 2018-07-09 06:14:43,-8192,-431,3841,9058.029918
9, 2018-07-09 06:14:43,-5267,-2039,3214,6498.354099
10, 2018-07-09 06:14:43,-3132,-1652,2313,4229.479519
11, 2018-07-09 06:14:43,-4007,430,2151,4568.123247
12, 2018-07-09 06:14:43,-6503,6049,595,8901.316476
13, 2018-07-09 06:14:43,-7639,4388,1907,9013.629347
14, 2018-07-09 06:14:43,-8192,1867,1369,8512.855808
15, 2018-07-09 06:14:43,-8192,-282,731,8229.38327
16, 2018-07-09 06:14:43,-7119,367,505,7146.318983
17, 2018-07-09 06:14:43,-6518,2127,402,6868.046083
18, 2018-07-09 06:14:43,-6911,2394,138,7315.203415
19, 2018-07-09 06:14:43,-6965,2274,-362,7335.75797
20, 2018-07-09 06:14:43,-6938,1803,-532,7188.162283
21, 2018-07-09 06:14:43,-6950,1284,-685,7100.731019
22, 2018-07-09 06:14:43,-6902,882,-670,6990.309578
23, 2018-07-09 06:14:43,-7034,478,-281,7055.820363
24, 2018-07-09 06:14:43,-7270,-192,1294,7386.758423
25, 2018-07-09 06:14:43,-7680,-845,490,7741.868315
26, 2018-07-09 06:14:43,-8192,1695,-1868,8571.540877
27, 2018-07-09 06:14:43,-8192,3060,-1876,8943.81574
28, 2018-07-09 06:14:43,-7249,2324,-1626,7784.141122
29, 2018-07-09 06:14:43,-7068,384,1520,7239.784527
30, 2018-07-09 06:14:43,-8192,-735,7968,11451.55505
31, 2018-07-09 06:14:43,-8192,496,387,8216.121287
32, 2018-07-09 06:14:43,-8192,1190,2775,8730.726717
33, 2018-07-09 06:14:43,-8192,1235,3597,9031.749443
34, 2018-07-09 06:14:43,-5294,4650,958,7111.026649
35, 2018-07-09 06:14:43,-2745,4169,2505,5584.855504
36, 2018-07-09 06:14:44,-6119,-22,4353,7509.411029
37, 2018-07-09 06:14:44,-8192,-3081,1189,8832.618298
38, 2018-07-09 06:14:44,-8192,-1228,411,8293.718647
39, 2018-07-09 06:14:44,-7281,1388,1288,7523.194069
40, 2018-07-09 06:14:44,-6846,3623,1206,7838.895394
41, 2018-07-09 06:14:44,-6186,2797,1028,6866.337379
42, 2018-07-09 06:14:44,-6959,932,727,7058.670838
43, 2018-07-09 06:14:44,-6806,1461,874,7015.699039
44, 2018-07-09 06:14:44,-7070,2114,861,7429.348356
45, 2018-07-09 06:14:44,-7591,2083,-168,7873.397869
46, 2018-07-09 06:14:44,-7493,1689,-411,7691.988755
47, 2018-07-09 06:14:44,-6922,1514,-109,7086.477334
48, 2018-07-09 06:14:44,-6468,1418,-181,6624.085522
49, 2018-07-09 06:14:44,-5847,1541,118,6047.810678
50, 2018-07-09 06:14:44,-5854,2107,827,6276.359932
51, 2018-07-09 06:14:44,-7307,2429,417,7711.431709
52, 2018-07-09 06:14:44,-8192,2145,-26,8468.209079
53, 2018-07-09 06:14:44,-8192,1246,38,8286.303398
54, 2018-07-09 06:14:44,-8192,323,-517,8214.650449
55, 2018-07-09 06:14:44,-8192,-270,-820,8237.363899
56, 2018-07-09 06:14:44,-8170,1976,-2257,8703.305407
57, 2018-07-09 06:14:44,-8192,2898,-1766,8867.131667
58, 2018-07-09 06:14:44,-8192,6683,3182,11040.67376
59, 2018-07-09 06:14:44,-8192,6597,2479,10806.23496
60, 2018-07-09 06:14:44,-8192,2480,3546,9264.630592
61, 2018-07-09 06:14:44,-8192,-733,4395,9325.351361
62, 2018-07-09 06:14:44,-6588,-2817,3836,8127.24609
63, 2018-07-09 06:14:44,-5505,-2988,1688,6487.103591
64, 2018-07-09 06:14:44,-4675,171,888,4761.660425
65, 2018-07-09 06:14:44,-4352,8192,1884,9465.63384
66, 2018-07-09 06:14:45,-6409,4996,2149,8405.563515
67, 2018-07-09 06:14:45,-7417,1776,708,7659.460098
68, 2018-07-09 06:14:45,-8192,-747,747,8259.835471
69, 2018-07-09 06:14:45,-7154,172,938,7217.280928
70, 2018-07-09 06:14:45,-7135,2039,-21,7420.659472
71, 2018-07-09 06:14:45,-6716,2598,529,7220.394795
72, 2018-07-09 06:14:45,-6196,1643,346,6419.468903
73, 2018-07-09 06:14:45,-6714,947,-497,6798.647954
74, 2018-07-09 06:14:45,-7124,405,-861,7187.261092
75, 2018-07-09 06:14:45,-6914,371,-464,6939.476421
76, 2018-07-09 06:14:45,-6887,324,-106,6895.431894
77, 2018-07-09 06:14:45,-7340,556,-57,7361.248875
78, 2018-07-09 06:14:45,-7816,1379,371,7945.384698
79, 2018-07-09 06:14:45,-8109,999,-244,8173.947516
80, 2018-07-09 06:14:45,-8192,645,-1057,8285.055099
81, 2018-07-09 06:14:45,-8147,1192,-1874,8444.308675
82, 2018-07-09 06:14:45,-7675,1939,-2709,8366.840921
83, 2018-07-09 06:14:45,-8192,1905,-142,8411.780608
84, 2018-07-09 06:14:45,-8192,-9,8192,11585.241
85, 2018-07-09 06:14:45,-8192,-975,1700,8423.151963
86, 2018-07-09 06:14:45,-8192,32,2077,8451.261267
87, 2018-07-09 06:14:45,-6961,1062,3618,7916.646323
88, 2018-07-09 06:14:45,-2995,5661,882,6464.895204
89, 2018-07-09 06:14:45,-3012,5809,1423,6696.383651
90, 2018-07-09 06:14:45,-5401,2033,3604,6803.874337
91, 2018-07-09 06:14:45,-8011,-2797,2929,8976.545605
92, 2018-07-09 06:14:45,-8192,-3771,826,9056.024569
93, 2018-07-09 06:14:45,-7944,494,478,7973.685221
94, 2018-07-09 06:14:45,-8192,4399,1624,9439.144082
95, 2018-07-09 06:14:45,-6983,3540,570,7849.763627
96, 2018-07-09 06:14:45,-6851,485,65,6868.453319
97, 2018-07-09 06:14:45,-5609,556,1017,5727.504343
98, 2018-07-09 06:14:45,-6247,1270,602,6403.148679
99, 2018-07-09 06:14:45,-7367,2343,-683,7760.723355
100, 2018-07-09 06:14:45,-7541,2326,-779,7929.930517
101, 2018-07-09 06:14:45,-6737,1639,-795,6978.933658
102, 2018-07-09 06:14:46,-6889,818,-193,6940.078818
103, 2018-07-09 06:14:46,-7410,999,104,7477.761497
104, 2018-07-09 06:14:46,-6898,2274,555,7284.332845
105, 2018-07-09 06:14:46,-6506,3405,96,7343.791732
106, 2018-07-09 06:14:46,-8192,2953,-2225,8987.752667
107, 2018-07-09 06:14:46,-8192,748,-2023,8471.180378
108, 2018-07-09 06:14:46,-8192,3362,1675,9012.077064
109, 2018-07-09 06:14:46,-8192,5867,2203,10314.25043
110, 2018-07-09 06:14:46,-8192,4681,2443,9746.223576
111, 2018-07-09 06:14:46,-8192,2197,2992,8993.761004
112, 2018-07-09 06:14:46,-6856,160,4017,7947.74339
113, 2018-07-09 06:14:46,-6117,-2367,2802,7132.431703
114, 2018-07-09 06:14:46,-5962,-3571,1409,7091.034198
115, 2018-07-09 06:14:46,-5522,-299,1257,5671.149266
116, 2018-07-09 06:14:46,-8192,1945,2595,8810.556963
117, 2018-07-09 06:14:46,-7273,7843,1005,10743.33296
118, 2018-07-09 06:14:46,-8192,3327,-240,8845.077331
119, 2018-07-09 06:14:46,-7120,-28,923,7179.631815
120, 2018-07-09 06:14:46,-6209,-806,889,6323.894212
121, 2018-07-09 06:14:46,-6371,1379,441,6533.434242
122, 2018-07-09 06:14:46,-6449,2046,826,6816.01005
123, 2018-07-09 06:14:46,-6751,1658,-2,6951.616287
124, 2018-07-09 06:14:46,-7311,855,-619,7386.806279
125, 2018-07-09 06:14:46,-7547,571,-322,7575.416424
126, 2018-07-09 06:14:46,-7406,1283,-618,7541.674151
127, 2018-07-09 06:14:46,-6945,1513,-41,7108.014842
128, 2018-07-09 06:14:46,-6749,876,1342,6936.666418
129, 2018-07-09 06:14:46,-7745,-328,-288,7757.290313
130, 2018-07-09 06:14:46,-8192,1537,-1912,8551.431284
131, 2018-07-09 06:14:46,-8192,3542,-1793,9103.26738
132, 2018-07-09 06:14:46,-7089,4156,-1420,8339.224005
133, 2018-07-09 06:14:46,-6620,2961,-1991,7520.372464
134, 2018-07-09 06:14:46,-8009,426,1151,8102.490852
135, 2018-07-09 06:14:46,-8192,-3705,7656,11808.90448
136, 2018-07-09 06:14:47,-8192,-2328,3441,9185.256066
137, 2018-07-09 06:14:47,-8192,2186,1804,8668.441382
138, 2018-07-09 06:14:47,-8192,3659,2235,9246.208412
139, 2018-07-09 06:14:47,-3459,5003,1047,6171.782482
140, 2018-07-09 06:14:47,-3489,2113,3542,5402.189741
141, 2018-07-09 06:14:47,-6387,1332,5753,8698.563215
142, 2018-07-09 06:14:47,-8192,-4191,1229,9283.522284
143, 2018-07-09 06:14:47,-8192,-834,-864,8279.548055
144, 2018-07-09 06:14:47,-8057,1080,498,8144.301873
145, 2018-07-09 06:14:47,-6448,2248,1755,7050.548418
146, 2018-07-09 06:14:47,-6586,1348,1193,6827.572702
147, 2018-07-09 06:14:47,-8192,-336,88,8199.359975
148, 2018-07-09 06:14:47,-7613,822,764,7695.267962
149, 2018-07-09 06:14:47,-6838,1684,534,7062.524761
150, 2018-07-09 06:14:47,-6631,2264,-406,7018.596227
151, 2018-07-09 06:14:47,-6568,1897,-487,6853.78742
152, 2018-07-09 06:14:47,-6675,1301,-557,6823.377096
153, 2018-07-09 06:14:47,-6903,777,-592,6971.771798
154, 2018-07-09 06:14:47,-7293,671,-503,7341.055714
155, 2018-07-09 06:14:47,-6799,1477,-715,6994.222973
156, 2018-07-09 06:14:47,-5880,2919,554,6588.010094
157, 2018-07-09 06:14:47,-6747,3517,-256,7612.938592
158, 2018-07-09 06:14:47,-8192,2382,-2274,8829.148543
159, 2018-07-09 06:14:47,-8192,2259,-1639,8654.378429
160, 2018-07-09 06:14:47,-8192,4767,3003,9942.392167
161, 2018-07-09 06:14:47,-8192,5677,13,9966.813031
162, 2018-07-09 06:14:47,-8192,3394,1982,9086.05657
163, 2018-07-09 06:14:47,-7128,646,4846,8643.460881
164, 2018-07-09 06:14:47,-6025,-1027,2849,6743.304457
165, 2018-07-09 06:14:47,-5370,-2657,1138,6098.491043
166, 2018-07-09 06:14:47,-5353,-1083,1138,5578.758106
167, 2018-07-09 06:14:47,-8192,5705,2207,10223.83186
168, 2018-07-09 06:14:47,-8192,7340,1708,11131.11531
169, 2018-07-09 06:14:48,-8192,3789,-313,9031.243215
170, 2018-07-09 06:14:48,-8192,701,167,8223.633868
171, 2018-07-09 06:14:48,-7042,-1924,1053,7375.659225
172, 2018-07-09 06:14:48,-5710,-829,627,5803.832355
173, 2018-07-09 06:14:48,-5685,1962,570,6040.99073
174, 2018-07-09 06:14:48,-6167,2048,-661,6531.700697
175, 2018-07-09 06:14:48,-6430,1150,-952,6601.0381
176, 2018-07-09 06:14:48,-6625,372,-813,6685.05632
177, 2018-07-09 06:14:48,-7176,1003,-750,7284.468752
178, 2018-07-09 06:14:48,-7757,1921,-467,8004.95965
179, 2018-07-09 06:14:48,-7927,1326,780,8074.89969
180, 2018-07-09 06:14:48,-8192,79,-812,8232.523854
181, 2018-07-09 06:14:48,-8192,1326,-2977,8816.443104
182, 2018-07-09 06:14:48,-8192,3488,-3379,9523.268819
183, 2018-07-09 06:14:48,-8192,2045,1431,8563.798807
184, 2018-07-09 06:14:48,-8192,89,3387,8865.018556
185, 2018-07-09 06:14:48,-8192,584,1546,8357.03512
186, 2018-07-09 06:14:48,-8192,321,4443,9324.813886
187, 2018-07-09 06:14:48,-6441,1703,2561,7137.605411
188, 2018-07-09 06:14:48,-3262,4595,1270,5776.466827
189, 2018-07-09 06:14:48,-3648,3013,2227,5229.302248
190, 2018-07-09 06:14:48,-6886,-597,2791,7454.065065
191, 2018-07-09 06:14:48,-8192,-2824,1653,8821.351881
192, 2018-07-09 06:14:48,-8192,-888,134,8241.077842
193, 2018-07-09 06:14:48,-7711,1668,1011,7953.85856
194, 2018-07-09 06:14:48,-6303,4273,980,7677.677904
195, 2018-07-09 06:14:48,-6175,2824,-69,6790.461104
196, 2018-07-09 06:14:48,-6611,30,321,6618.856548
197, 2018-07-09 06:14:48,-6504,-24,353,6513.616584
198, 2018-07-09 06:14:48,-6883,1221,-406,7002.24007
199, 2018-07-09 06:14:48,-6986,1897,-1120,7325.107849
200, 2018-07-09 06:14:48,-6954,1962,-1268,7335.896946
201, 2018-07-09 06:14:48,-6668,1739,-1054,6971.173574
202, 2018-07-09 06:14:49,-6639,1414,-72,6788.291464
203, 2018-07-09 06:14:49,-7287,1247,231,7396.535608
204, 2018-07-09 06:14:49,-7623,1601,-578,7810.724294
205, 2018-07-09 06:14:49,-8110,2442,-1789,8656.557341
206, 2018-07-09 06:14:49,-8192,2578,-2737,9013.662796
207, 2018-07-09 06:14:49,-8192,1108,-2609,8668.529806
208, 2018-07-09 06:14:49,-8192,3944,2303,9379.115577
209, 2018-07-09 06:14:49,-8192,6301,3419,10885.81765
210, 2018-07-09 06:14:49,-8192,3983,2601,9473.032988
211, 2018-07-09 06:14:49,-8192,703,3256,8843.336983
212, 2018-07-09 06:14:49,-5303,-1211,2257,5889.17473
213, 2018-07-09 06:14:49,-3074,-2185,1520,4066.214579
214, 2018-07-09 06:14:49,-2459,-276,694,2569.920816
215, 2018-07-09 06:14:49,-3484,2507,404,4311.208763
216, 2018-07-09 06:14:49,-8022,8192,180,11467.07234
217, 2018-07-09 06:14:49,-8192,5833,-559,10072.00248
218, 2018-07-09 06:14:49,-8192,-1061,124,8261.353461
219, 2018-07-09 06:14:49,-5998,-1118,878,6164.155417
220, 2018-07-09 06:14:49,-4029,-419,945,4159.498407
221, 2018-07-09 06:14:49,-4711,2054,169,5142.081096
222, 2018-07-09 06:14:49,-6520,2416,-504,6971.475597
223, 2018-07-09 06:14:49,-6650,1575,-542,6855.427704
224, 2018-07-09 06:14:49,-7023,829,-884,7126.796335
225, 2018-07-09 06:14:49,-7759,1250,-605,7882.297
226, 2018-07-09 06:14:49,-7785,1500,293,7933.604099
227, 2018-07-09 06:14:49,-7535,952,350,7602.961857
228, 2018-07-09 06:14:49,-8159,1308,-2947,8772.967229
229, 2018-07-09 06:14:49,-8192,2163,-3323,9101.085759
230, 2018-07-09 06:14:49,-8192,406,4090,9165.249587
231, 2018-07-09 06:14:49,-8192,1060,3557,8993.592886
232, 2018-07-09 06:14:49,-8192,1897,-405,8418.521129
233, 2018-07-09 06:14:49,-7574,1294,3493,8440.436067
234, 2018-07-09 06:14:49,-3751,3776,2081,5714.782411
235, 2018-07-09 06:14:49,-2826,3623,1642,4879.402525
236, 2018-07-09 06:14:49,-5064,1647,2159,5746.127914
237, 2018-07-09 06:14:50,-8192,-2068,1978,8677.440406
238, 2018-07-09 06:14:50,-8192,-2482,1462,8683.699212
239, 2018-07-09 06:14:50,-8192,535,554,8228.122811
240, 2018-07-09 06:14:50,-7345,2150,1354,7772.055134
241, 2018-07-09 06:14:50,-5659,3844,849,6893.578026
242, 2018-07-09 06:14:50,-5786,2121,336,6171.655613
243, 2018-07-09 06:14:50,-6168,1105,713,6306.632858
244, 2018-07-09 06:14:50,-5994,1380,622,6182.17761
245, 2018-07-09 06:14:50,-6359,1903,-9,6637.648002
