No, waktu, accx, accY, accZ,Akselerasi
1, 2018-07-09 06:17:23,-8192,716,302,8228.774149
2, 2018-07-09 06:17:23,-8192,2553,-2291,8881.179764
3, 2018-07-09 06:17:23,-8192,4473,-3120,9841.29021
4, 2018-07-09 06:17:23,-7168,3913,-1782,8358.667178
5, 2018-07-09 06:17:23,-6896,1131,-1557,7159.485037
6, 2018-07-09 06:17:23,-7543,-1103,-2965,8179.528287
7, 2018-07-09 06:17:23,-8160,-1495,-3657,9066.105779
8, 2018-07-09 06:17:23,-8192,-1664,-636,8383.451318
9, 2018-07-09 06:17:23,-8192,-2993,4639,9878.625107
10, 2018-07-09 06:17:23,-8192,1165,1772,8462.037166
11, 2018-07-09 06:17:23,-8192,2292,2480,8860.729541
12, 2018-07-09 06:17:23,-6239,1686,2136,6806.630077
13, 2018-07-09 06:17:23,-4728,4292,813,6437.096939
14, 2018-07-09 06:17:23,-6271,2844,903,6944.723609
15, 2018-07-09 06:17:23,-6682,1260,2313,7182.387695
16, 2018-07-09 06:17:23,-7709,-749,2779,8228.761936
17, 2018-07-09 06:17:23,-8192,-735,1451,8351.915349
18, 2018-07-09 06:17:23,-7671,1931,225,7913.509146
19, 2018-07-09 06:17:23,-6118,2819,690,6771.468452
20, 2018-07-09 06:17:23,-6565,652,68,6597.647535
21, 2018-07-09 06:17:23,-7161,-319,513,7186.435208
22, 2018-07-09 06:17:23,-7558,1220,-46,7655.970219
23, 2018-07-09 06:17:23,-7595,2071,-1001,7935.683146
24, 2018-07-09 06:17:23,-7041,1890,-1183,7385.612365
25, 2018-07-09 06:17:23,-6660,1188,-906,6825.524156
26, 2018-07-09 06:17:23,-6510,458,-697,6563.206
27, 2018-07-09 06:17:23,-7188,-72,355,7197.121161
28, 2018-07-09 06:17:23,-7213,1025,617,7311.544502
29, 2018-07-09 06:17:23,-6932,2374,-532,7346.531426
30, 2018-07-09 06:17:23,-7463,3239,-2008,8379.710854
31, 2018-07-09 06:17:23,-8192,3109,-3092,9291.674176
32, 2018-07-09 06:17:23,-8192,2322,-3347,9148.932014
33, 2018-07-09 06:17:24,-8192,4375,139,9288.100452
34, 2018-07-09 06:17:24,-8192,6825,3313,11165.36869
35, 2018-07-09 06:17:24,-8192,4602,1257,9479.837393
36, 2018-07-09 06:17:24,-8192,1759,3416,9048.314815
37, 2018-07-09 06:17:24,-6850,-953,3344,7681.994858
38, 2018-07-09 06:17:24,-5048,-2166,2565,6062.432268
39, 2018-07-09 06:17:24,-4351,-3997,769,5958.067724
40, 2018-07-09 06:17:24,-4547,-11,464,4570.626434
41, 2018-07-09 06:17:24,-8192,5926,3402,10667.70566
42, 2018-07-09 06:17:24,-7950,7997,5,11276.28192
43, 2018-07-09 06:17:24,-8157,3211,-465,8778.57591
44, 2018-07-09 06:17:24,-8192,-617,-315,8221.239444
45, 2018-07-09 06:17:24,-6868,-885,498,6942.669011
46, 2018-07-09 06:17:24,-5984,286,67,5991.205304
47, 2018-07-09 06:17:24,-5809,1747,-609,6096.504818
48, 2018-07-09 06:17:24,-5676,1305,-395,5837.46743
49, 2018-07-09 06:17:24,-6321,840,-1101,6470.922809
50, 2018-07-09 06:17:24,-7178,607,-1682,7397.381767
51, 2018-07-09 06:17:24,-7687,652,-1683,7896.047239
52, 2018-07-09 06:17:24,-7906,1322,-926,8069.076527
53, 2018-07-09 06:17:24,-7253,823,986,7365.835594
54, 2018-07-09 06:17:24,-8011,-1783,-1162,8288.875316
55, 2018-07-09 06:17:24,-8192,-300,-3639,8968.900992
56, 2018-07-09 06:17:24,-8192,2045,-2542,8817.746481
57, 2018-07-09 06:17:24,-8192,1892,2042,8652.068654
58, 2018-07-09 06:17:24,-8192,877,2037,8486.893542
59, 2018-07-09 06:17:24,-8192,2215,-1440,8607.478667
60, 2018-07-09 06:17:24,-8192,1836,1620,8550.097075
61, 2018-07-09 06:17:24,-5279,1206,3634,6521.367418
62, 2018-07-09 06:17:24,-3981,1499,3810,5710.644622
63, 2018-07-09 06:17:24,-5436,1205,2431,6075.514958
64, 2018-07-09 06:17:24,-7018,831,193,7069.662934
65, 2018-07-09 06:17:24,-8192,-325,1306,8301.814561
66, 2018-07-09 06:17:24,-8192,-306,915,8248.619581
67, 2018-07-09 06:17:24,-6355,2022,876,6726.208813
68, 2018-07-09 06:17:24,-5893,2495,939,6467.935915
69, 2018-07-09 06:17:24,-6777,1615,-92,6967.382435
70, 2018-07-09 06:17:24,-6950,1411,439,7105.360089
71, 2018-07-09 06:17:24,-6778,1459,372,6943.223243
72, 2018-07-09 06:17:24,-6779,1890,-593,7062.477611
73, 2018-07-09 06:17:24,-6406,1967,-1293,6824.791132
74, 2018-07-09 06:17:24,-6067,1558,-1250,6387.358844
75, 2018-07-09 06:17:25,-6601,644,-903,6693.53016
76, 2018-07-09 06:17:25,-7383,119,-1177,7477.177208
77, 2018-07-09 06:17:25,-6666,780,739,6752.042432
78, 2018-07-09 06:17:25,-6423,3648,2376,7759.394886
79, 2018-07-09 06:17:25,-8192,4848,-3377,10100.30183
80, 2018-07-09 06:17:25,-8192,2345,-6484,10707.4808
81, 2018-07-09 06:17:25,-8192,4906,1966,9748.992563
82, 2018-07-09 06:17:25,-8192,6492,3850,11139.0048
83, 2018-07-09 06:17:25,-8192,3214,1201,8881.501056
84, 2018-07-09 06:17:25,-8192,-237,3015,8732.425665
85, 2018-07-09 06:17:25,-5526,-2364,2749,6609.24905
86, 2018-07-09 06:17:25,-3936,-2528,2490,5299.337694
87, 2018-07-09 06:17:25,-5276,-2358,3498,6755.171648
88, 2018-07-09 06:17:25,-8192,1332,2026,8543.287658
89, 2018-07-09 06:17:25,-7565,8192,-2511,11429.92607
90, 2018-07-09 06:17:25,-7748,3752,1105,8679.287586
91, 2018-07-09 06:17:25,-7390,1012,-413,7470.395773
92, 2018-07-09 06:17:25,-6778,273,-552,6805.917793
93, 2018-07-09 06:17:25,-5448,873,779,5572.223434
94, 2018-07-09 06:17:25,-6367,2987,-695,7067.098627
95, 2018-07-09 06:17:25,-6797,2655,-1660,7483.570939
96, 2018-07-09 06:17:25,-6809,1508,-960,7039.754612
97, 2018-07-09 06:17:25,-7558,-294,-562,7584.566171
98, 2018-07-09 06:17:25,-6301,523,740,6365.825163
99, 2018-07-09 06:17:25,-5714,1111,1948,6138.307666
100, 2018-07-09 06:17:25,-8192,688,-3120,8792.986296
101, 2018-07-09 06:17:25,-8192,2281,-6967,10993.22127
102, 2018-07-09 06:17:25,-8192,2263,-2650,8902.389174
103, 2018-07-09 06:17:25,-8192,34,5197,9701.485917
104, 2018-07-09 06:17:25,-8192,-648,4992,9615.031565
105, 2018-07-09 06:17:25,-8192,204,-660,8221.075355
106, 2018-07-09 06:17:25,-5617,745,2459,6176.762502
107, 2018-07-09 06:17:25,-3557,4530,2420,6247.363364
108, 2018-07-09 06:17:25,-3426,4945,1715,6255.535629
109, 2018-07-09 06:17:25,-6416,2479,1727,7091.75761
110, 2018-07-09 06:17:25,-8192,-2726,1713,8801.949159
111, 2018-07-09 06:17:25,-8192,-1978,949,8480.680928
112, 2018-07-09 06:17:25,-6790,2069,698,7132.465562
113, 2018-07-09 06:17:25,-6128,4838,713,7840.089094
114, 2018-07-09 06:17:25,-6599,2678,-684,7154.463013
115, 2018-07-09 06:17:25,-6357,1249,-154,6480.367736
116, 2018-07-09 06:17:25,-5259,1287,1417,5596.54706
117, 2018-07-09 06:17:26,-6756,2316,362,7151.114319
118, 2018-07-09 06:17:26,-8182,2571,-1395,8689.142075
119, 2018-07-09 06:17:26,-7699,1474,-1467,7974.921065
120, 2018-07-09 06:17:26,-7126,326,-394,7144.32558
121, 2018-07-09 06:17:26,-7008,89,-143,7010.023823
122, 2018-07-09 06:17:26,-6886,162,-110,6888.783637
123, 2018-07-09 06:17:26,-7309,988,-125,7376.533739
124, 2018-07-09 06:17:26,-7980,3277,-1928,8839.474702
125, 2018-07-09 06:17:26,-8192,5087,-3673,10318.78685
126, 2018-07-09 06:17:26,-8192,4663,-3901,10201.48195
127, 2018-07-09 06:17:26,-8192,5249,-100,9729.895426
128, 2018-07-09 06:17:26,-8192,6333,3792,11027.01306
129, 2018-07-09 06:17:26,-8192,3365,3627,9570.121107
130, 2018-07-09 06:17:26,-8192,-835,5165,9720.252774
131, 2018-07-09 06:17:26,-5989,-1908,4347,7642.31601
132, 2018-07-09 06:17:26,-5239,-4041,1779,6851.397157
133, 2018-07-09 06:17:26,-5821,224,-169,5827.759261
134, 2018-07-09 06:17:26,-8192,6998,1132,10833.38784
135, 2018-07-09 06:17:26,-7081,6171,1252,9475.721925
136, 2018-07-09 06:17:26,-6514,2608,598,7042.120703
137, 2018-07-09 06:17:26,-6712,279,-263,6722.942362
138, 2018-07-09 06:17:26,-6388,-726,703,6467.443776
139, 2018-07-09 06:17:26,-6402,820,-17,6454.32359
140, 2018-07-09 06:17:26,-6578,2213,-395,6951.509045
141, 2018-07-09 06:17:26,-5988,2395,-392,6461.101531
142, 2018-07-09 06:17:26,-6044,1329,-1173,6298.579681
143, 2018-07-09 06:17:26,-6922,275,-1477,7083.165818
144, 2018-07-09 06:17:26,-8061,103,-1088,8134.744864
145, 2018-07-09 06:17:26,-8192,556,-489,8225.394884
146, 2018-07-09 06:17:26,-7088,266,1041,7168.973497
147, 2018-07-09 06:17:26,-8147,-461,-64,8160.283451
148, 2018-07-09 06:17:26,-8192,873,-4844,9556.951868
149, 2018-07-09 06:17:26,-8192,3602,-4749,10130.95598
150, 2018-07-09 06:17:26,-8192,1715,5232,9870.355262
151, 2018-07-09 06:17:26,-8192,924,958,8299.421908
152, 2018-07-09 06:17:26,-8192,597,1821,8413.163139
153, 2018-07-09 06:17:26,-4869,576,2950,5722.013369
154, 2018-07-09 06:17:27,-2202,3737,2631,5073.079341
155, 2018-07-09 06:17:27,-3984,3015,1561,5234.424706
156, 2018-07-09 06:17:27,-7905,190,680,7936.468043
157, 2018-07-09 06:17:27,-8192,-1540,1655,8498.205046
158, 2018-07-09 06:17:27,-8192,-1283,435,8303.263094
159, 2018-07-09 06:17:27,-7864,2533,166,8263.542884
160, 2018-07-09 06:17:27,-6132,3655,121,7139.684167
161, 2018-07-09 06:17:27,-5483,2423,-100,5995.349698
162, 2018-07-09 06:17:27,-5450,383,404,5478.357874
163, 2018-07-09 06:17:27,-5481,426,961,5580.892223
164, 2018-07-09 06:17:27,-6474,1063,106,6561.545626
165, 2018-07-09 06:17:27,-7069,1791,-1229,7395.193236
166, 2018-07-09 06:17:27,-7446,1771,-889,7705.172159
167, 2018-07-09 06:17:27,-7568,1758,-79,7769.90534
168, 2018-07-09 06:17:27,-7375,1785,-539,7607.060602
169, 2018-07-09 06:17:27,-8192,1609,-858,8392.491227
170, 2018-07-09 06:17:27,-8192,2729,-1819,8824.118426
171, 2018-07-09 06:17:27,-8192,2976,-2720,9130.380058
172, 2018-07-09 06:17:27,-8192,2207,-2679,8897.008149
173, 2018-07-09 06:17:27,-8192,6169,5519,11645.80551
174, 2018-07-09 06:17:27,-8192,6392,2941,10798.88925
175, 2018-07-09 06:17:27,-8192,4298,2427,9564.099383
176, 2018-07-09 06:17:27,-8192,-125,4460,9328.241474
177, 2018-07-09 06:17:27,-5631,-2330,3737,7148.582377
178, 2018-07-09 06:17:27,-5086,-3944,2013,6743.493234
179, 2018-07-09 06:17:27,-4901,-1886,-379,5265.020228
180, 2018-07-09 06:17:27,-6923,542,288,6950.153739
181, 2018-07-09 06:17:28,-4640,8192,1587,9547.619232
182, 2018-07-09 06:17:28,-7036,6133,1105,9398.936642
183, 2018-07-09 06:17:28,-8192,-10,153,8193.43475
184, 2018-07-09 06:17:28,-8192,-643,70,8217.494326
185, 2018-07-09 06:17:28,-7365,-1159,890,7508.568838
186, 2018-07-09 06:17:28,-6849,-58,226,6852.97315
187, 2018-07-09 06:17:28,-6275,1737,-23,6511.015512
188, 2018-07-09 06:17:28,-5635,1635,-372,5879.186508
189, 2018-07-09 06:17:28,-6118,1066,-695,6248.944311
190, 2018-07-09 06:17:28,-7395,985,-1339,7579.523138
191, 2018-07-09 06:17:28,-7934,1201,-1264,8123.327705
192, 2018-07-09 06:17:28,-7937,987,-361,8006.276226
193, 2018-07-09 06:17:28,-6579,229,393,6594.70477
194, 2018-07-09 06:17:28,-7371,-1572,-373,7545.989266
195, 2018-07-09 06:17:28,-8192,-1234,-2510,8656.310993
196, 2018-07-09 06:17:29,-8192,1470,2010,8562.117962
197, 2018-07-09 06:17:29,-8192,2542,4227,9562.330103
198, 2018-07-09 06:17:29,-8192,1936,425,8428.379738
199, 2018-07-09 06:17:29,-8192,3157,-622,8801.272465
200, 2018-07-09 06:17:29,-5638,4033,1938,7197.775837
201, 2018-07-09 06:17:29,-4431,4383,3608,7201.535531
202, 2018-07-09 06:17:29,-5630,2214,3214,6850.437358
203, 2018-07-09 06:17:29,-6615,-171,1908,6886.793884
204, 2018-07-09 06:17:29,-7910,-2766,1026,8442.246857
