No, waktu, accx, accY, accZ,Akselerasi
1, 2018-07-09 06:13:18,-8192,1909,3083,8958.684837
2, 2018-07-09 06:13:18,-5996,5522,809,8191.396767
3, 2018-07-09 06:13:18,-4485,5252,1600,7089.339109
4, 2018-07-09 06:13:18,-4588,1599,4145,6386.514699
5, 2018-07-09 06:13:18,-6374,-1371,4363,7844.9529
6, 2018-07-09 06:13:18,-8030,-3247,1175,8740.968711
7, 2018-07-09 06:13:18,-8192,-1715,872,8414.8959
8, 2018-07-09 06:13:18,-8192,1134,2170,8550.071345
9, 2018-07-09 06:13:18,-7221,5690,726,9222.039742
10, 2018-07-09 06:13:18,-7842,1075,412,7926.054062
11, 2018-07-09 06:13:18,-6709,920,985,6843.048005
12, 2018-07-09 06:13:18,-6177,1018,1465,6429.453943
13, 2018-07-09 06:13:18,-7080,1320,759,7241.883802
14, 2018-07-09 06:13:18,-8183,1580,-183,8336.148871
15, 2018-07-09 06:13:18,-8041,1810,-112,8242.956084
16, 2018-07-09 06:13:18,-7070,1895,-76,7319.952254
17, 2018-07-09 06:13:18,-6677,1686,-527,6906.710795
18, 2018-07-09 06:13:18,-6754,1212,-442,6876.105293
19, 2018-07-09 06:13:18,-7207,911,66,7264.649062
20, 2018-07-09 06:13:18,-7518,1455,-12,7657.512194
21, 2018-07-09 06:13:18,-7146,2306,316,7515.504507
22, 2018-07-09 06:13:18,-6931,2864,696,7531.644774
23, 2018-07-09 06:13:19,-8192,2094,-144,8456.620838
24, 2018-07-09 06:13:19,-8192,304,-951,8252.616615
25, 2018-07-09 06:13:19,-7189,784,-1123,7318.299393
26, 2018-07-09 06:13:19,-6433,2131,-476,6793.469364
27, 2018-07-09 06:13:19,-7748,5241,3751,10078.17374
28, 2018-07-09 06:13:19,-8192,7060,2095,11015.51129
29, 2018-07-09 06:13:19,-8192,2527,835,8613.467246
30, 2018-07-09 06:13:19,-8192,-766,2013,8470.406661
31, 2018-07-09 06:13:19,-7877,-2150,2147,8442.70324
32, 2018-07-09 06:13:19,-4544,-2025,1740,5270.309384
33, 2018-07-09 06:13:19,-2922,-393,2613,3939.58145
34, 2018-07-09 06:13:19,-4717,4712,3880,7714.106105
35, 2018-07-09 06:13:19,-6402,5782,1993,8853.766261
36, 2018-07-09 06:13:19,-8192,2532,50,8574.519695
37, 2018-07-09 06:13:19,-8192,174,-233,8197.159813
38, 2018-07-09 06:13:19,-8192,-1611,988,8407.159389
39, 2018-07-09 06:13:19,-6848,-302,444,6869.0206
40, 2018-07-09 06:13:19,-6366,1326,236,6506.913861
41, 2018-07-09 06:13:19,-6783,1748,302,7011.119525
42, 2018-07-09 06:13:19,-7021,1642,95,7211.076896
43, 2018-07-09 06:13:19,-7251,1552,-460,7429.488879
44, 2018-07-09 06:13:19,-7176,1121,-772,7303.944208
45, 2018-07-09 06:13:19,-7086,702,-471,7136.248384
46, 2018-07-09 06:13:19,-7091,508,-337,7117.156314
47, 2018-07-09 06:13:19,-6925,507,-423,6956.407334
48, 2018-07-09 06:13:19,-7098,755,-518,7156.81165
49, 2018-07-09 06:13:19,-7590,676,424,7631.831497
50, 2018-07-09 06:13:19,-7366,-474,755,7419.747772
51, 2018-07-09 06:13:20,-7131,-699,15,7165.19274
52, 2018-07-09 06:13:20,-8035,1341,-1454,8274.878972
53, 2018-07-09 06:13:20,-8192,3090,-2029,8987.424826
54, 2018-07-09 06:13:20,-8192,3369,-2060,9094.098361
55, 2018-07-09 06:13:20,-7549,2684,-1242,8107.639669
56, 2018-07-09 06:13:20,-8192,-2920,6455,10830.61813
57, 2018-07-09 06:13:20,-8192,-2377,2191,8806.785679
58, 2018-07-09 06:13:20,-8192,-347,1697,8373.116624
59, 2018-07-09 06:13:20,-8192,1850,2906,8886.855462
60, 2018-07-09 06:13:20,-6023,6200,-74,8644.189089
61, 2018-07-09 06:13:20,-3805,4930,1937,6521.878104
62, 2018-07-09 06:13:20,-3628,1564,4160,5737.079396
63, 2018-07-09 06:13:20,-5240,-1232,5134,7438.641005
64, 2018-07-09 06:13:20,-7477,-3621,2020,8549.711691
65, 2018-07-09 06:13:20,-8192,-1329,212,8301.809983
66, 2018-07-09 06:13:20,-8192,2208,1618,8637.247941
67, 2018-07-09 06:13:20,-8192,2946,312,8711.206805
68, 2018-07-09 06:13:20,-6948,309,661,6986.208271
69, 2018-07-09 06:13:20,-6354,1294,1303,6614.042712
70, 2018-07-09 06:13:20,-7219,2223,599,7577.23505
71, 2018-07-09 06:13:20,-7837,2124,-277,8124.449151
72, 2018-07-09 06:13:20,-7269,1781,-296,7489.855673
73, 2018-07-09 06:13:20,-6392,1538,-176,6576.783712
74, 2018-07-09 06:13:20,-6730,708,-200,6770.093352
75, 2018-07-09 06:13:20,-7730,908,29,7783.200177
76, 2018-07-09 06:13:21,-7591,1645,-85,7767.6593
77, 2018-07-09 06:13:21,-6448,3287,849,7287.103265
78, 2018-07-09 06:13:21,-7071,3352,-604,7848.551522
79, 2018-07-09 06:13:21,-8192,1352,-1917,8521.247385
80, 2018-07-09 06:13:21,-8192,-380,-788,8238.58046
81, 2018-07-09 06:13:21,-7726,-766,-1670,7941.456541
82, 2018-07-09 06:13:21,-8184,1387,-629,8324.497943
83, 2018-07-09 06:13:21,-8192,6731,4652,11578.26969
84, 2018-07-09 06:13:21,-8192,7942,1314,11485.24375
85, 2018-07-09 06:13:21,-8192,4684,3911,10214.92247
86, 2018-07-09 06:13:21,-8192,898,4944,9610.327986
87, 2018-07-09 06:13:21,-6735,-887,1253,6907.749489
88, 2018-07-09 06:13:21,-5486,-2416,-130,5995.844561
89, 2018-07-09 06:13:21,-3379,-1090,531,3589.944568
90, 2018-07-09 06:13:21,-6330,3390,4500,8474.137124
91, 2018-07-09 06:13:21,-8192,4300,1682,9403.615688
92, 2018-07-09 06:13:21,-8192,1419,-297,8319.292879
93, 2018-07-09 06:13:21,-8192,-1601,1087,8417.460068
94, 2018-07-09 06:13:21,-7698,-1625,1306,7975.303443
95, 2018-07-09 06:13:21,-7155,1373,716,7320.642731
96, 2018-07-09 06:13:21,-6592,2342,444,7009.747784
97, 2018-07-09 06:13:21,-6850,2277,-684,7250.867879
98, 2018-07-09 06:13:21,-6732,2150,-275,7072.336884
99, 2018-07-09 06:13:21,-6548,1580,51,6736.119432
100, 2018-07-09 06:13:21,-6821,859,-297,6881.288469
101, 2018-07-09 06:13:21,-7075,843,-480,7141.195558
102, 2018-07-09 06:13:21,-7307,902,163,7364.266562
103, 2018-07-09 06:13:21,-7481,938,1143,7625.723179
104, 2018-07-09 06:13:22,-7936,65,1822,8142.727123
105, 2018-07-09 06:13:22,-8192,1322,-1140,8375.926695
106, 2018-07-09 06:13:22,-8192,3960,-2891,9547.164239
107, 2018-07-09 06:13:22,-8192,4209,-2443,9528.525279
108, 2018-07-09 06:13:22,-7557,1471,-678,7728.633385
109, 2018-07-09 06:13:22,-8192,-2575,4912,9892.786918
110, 2018-07-09 06:13:22,-8192,-2552,3981,9458.854529
111, 2018-07-09 06:13:22,-8192,47,2616,8599.681913
112, 2018-07-09 06:13:22,-7705,2125,2373,8337.492369
113, 2018-07-09 06:13:22,-2615,6728,60,7218.57389
114, 2018-07-09 06:13:22,-2179,4549,2865,5800.833302
115, 2018-07-09 06:13:22,-7188,818,5411,9034.123588
116, 2018-07-09 06:13:22,-8192,-5248,2480,10039.95857
117, 2018-07-09 06:13:22,-8192,-4280,-226,9245.449692
118, 2018-07-09 06:13:22,-7565,1495,735,7746.255547
119, 2018-07-09 06:13:22,-7909,6600,1694,10439.44045
120, 2018-07-09 06:13:22,-5766,3147,-188,6571.583447
121, 2018-07-09 06:13:22,-7044,-1164,764,7180.287459
122, 2018-07-09 06:13:22,-6820,539,934,6904.728597
123, 2018-07-09 06:13:22,-7821,1501,130,7964.793908
124, 2018-07-09 06:13:22,-8019,3181,-694,8654.753492
125, 2018-07-09 06:13:22,-7081,3217,-576,7798.809268
126, 2018-07-09 06:13:22,-6667,1919,-516,6956.845981
127, 2018-07-09 06:13:22,-7107,812,-214,7156.436893
128, 2018-07-09 06:13:22,-7015,816,-134,7063.571122
129, 2018-07-09 06:13:22,-7276,1879,-245,7518.699489
130, 2018-07-09 06:13:22,-7335,2522,1045,7826.54036
131, 2018-07-09 06:13:22,-7501,1446,206,7641.881509
132, 2018-07-09 06:13:22,-8192,59,-1882,8405.609377
133, 2018-07-09 06:13:23,-8192,-845,-1798,8429.453897
134, 2018-07-09 06:13:23,-8093,760,-752,8163.317524
135, 2018-07-09 06:13:23,-8126,5791,3169,10469.48509
136, 2018-07-09 06:13:23,-8192,8192,3162,12008.99546
137, 2018-07-09 06:13:23,-8192,2471,1354,8663.026088
138, 2018-07-09 06:13:23,-8192,-1337,2162,8577.335076
139, 2018-07-09 06:13:23,-7188,-2494,2671,8063.598514
140, 2018-07-09 08:36:02,-7882,-388,392,7901.274074
141, 2018-07-09 08:36:02,-5712,-97,503,5734.92476
142, 2018-07-09 08:36:02,-5710,955,361,5800.555663
143, 2018-07-09 08:36:02,-6335,897,112,6399.170102
144, 2018-07-09 08:36:02,-7346,1356,-200,7472.780741
145, 2018-07-09 08:36:02,-7878,1895,-1052,8170.716798
146, 2018-07-09 08:36:02,-6928,2301,-885,7353.571241
147, 2018-07-09 08:36:02,-6362,2621,-435,6894.484027
148, 2018-07-09 08:36:02,-6981,2227,-2376,7703.198427
149, 2018-07-09 08:36:02,-8192,1386,-1845,8510.809891
150, 2018-07-09 08:36:02,-8192,1616,-1802,8542.10302
151, 2018-07-09 08:36:02,-8118,1603,-1675,8442.580056
152, 2018-07-09 08:36:02,-7573,1558,-2325,8073.618643
153, 2018-07-09 08:36:02,-8192,247,-1142,8274.904048
154, 2018-07-09 08:36:02,-8192,2558,-1387,8693.445634
155, 2018-07-09 08:36:02,-8192,3094,4120,9677.608176
156, 2018-07-09 08:36:02,-5611,39,4054,6922.409841
157, 2018-07-09 08:36:02,-7209,-2839,789,7787.947291
158, 2018-07-09 08:36:02,-8192,-1732,-986,8430.947989
159, 2018-07-09 08:36:02,-8192,3552,-2787,9353.765926
160, 2018-07-09 08:36:02,-7686,3500,-272,8449.768044
161, 2018-07-09 08:36:02,-5512,1632,924,5822.314316
162, 2018-07-09 08:36:02,-4927,275,375,4948.896746
163, 2018-07-09 08:36:02,-6379,531,-866,6459.377524
164, 2018-07-09 08:36:02,-6948,405,-943,7023.387929
165, 2018-07-09 08:36:02,-7241,178,266,7248.070157
166, 2018-07-09 08:36:02,-7090,185,-198,7095.17646
167, 2018-07-09 08:36:02,-7279,-227,-719,7317.945818
168, 2018-07-09 08:36:03,-7502,-635,-1037,7599.907763
169, 2018-07-09 08:36:03,-7836,226,-1800,8043.256306
170, 2018-07-09 08:36:03,-8192,592,-1717,8390.912763
171, 2018-07-09 08:36:03,-8192,655,-1674,8386.904375
172, 2018-07-09 08:36:03,-8192,-976,-1413,8370.066248
173, 2018-07-09 08:36:03,-8192,983,-3133,8825.578848
174, 2018-07-09 08:36:03,-8192,2974,-527,8731.051998
175, 2018-07-09 08:36:03,-8192,1271,1922,8509.899471
176, 2018-07-09 08:36:03,-8192,-1070,1785,8452.217993
177, 2018-07-09 08:36:03,-5995,652,1845,6306.278935
178, 2018-07-09 08:36:03,-3181,2527,757,4132.497913
179, 2018-07-09 08:36:03,-5216,1238,1840,5667.883203
180, 2018-07-09 08:36:03,-8192,40,915,8243.038821
181, 2018-07-09 08:36:03,-8192,831,238,8237.47953
182, 2018-07-09 08:36:03,-6050,-74,1306,6189.799027
183, 2018-07-09 08:36:03,-4900,868,1247,5130.149413
184, 2018-07-09 08:36:03,-5161,1451,661,5401.688903
185, 2018-07-09 08:36:03,-6816,1423,43,6963.090837
186, 2018-07-09 08:36:03,-8192,1306,-309,8301.203587
187, 2018-07-09 08:36:03,-7254,1645,-832,7484.568458
188, 2018-07-09 08:36:03,-6580,1302,-893,6766.760894
189, 2018-07-09 08:36:03,-6678,943,-1461,6900.685038
190, 2018-07-09 08:36:03,-7887,1415,-731,8046.201278
191, 2018-07-09 08:36:03,-8192,1633,-1642,8513.032186
192, 2018-07-09 08:36:03,-8192,1445,-2170,8596.84762
193, 2018-07-09 08:36:03,-8192,943,-1702,8419.911935
194, 2018-07-09 08:36:03,-8192,1688,-1907,8578.744489
195, 2018-07-09 08:36:03,-7976,2058,-2837,8712.089818
196, 2018-07-09 08:36:03,-8192,1473,-565,8342.530671
197, 2018-07-09 08:36:03,-8192,2755,-1180,8723.032099
198, 2018-07-09 08:36:03,-8192,3685,1638,9130.77943
199, 2018-07-09 08:36:03,-6663,14,3105,7350.972045
200, 2018-07-09 08:36:03,-5116,-2617,1458,5928.567196
201, 2018-07-09 08:36:03,-6266,-1998,794,6624.590251
202, 2018-07-09 08:36:04,-8192,-317,-600,8220.057968
203, 2018-07-09 08:36:04,-8192,3830,-19,9043.125842
204, 2018-07-09 08:36:04,-5797,1227,1154,6036.758567
205, 2018-07-09 08:36:04,-5349,42,372,5362.084389
206, 2018-07-09 08:36:04,-6461,-205,-390,6476.005405
207, 2018-07-09 08:36:04,-7615,642,-360,7650.489461
208, 2018-07-09 08:36:04,-7526,359,-241,7538.41084
209, 2018-07-09 08:36:04,-6901,-155,-890,6959.87974
210, 2018-07-09 08:36:04,-7427,-750,-1837,7687.483203
211, 2018-07-09 08:36:04,-7859,904,-1295,8016.116391
212, 2018-07-09 08:36:04,-7427,924,-1763,7689.100988
213, 2018-07-09 08:36:04,-8192,-115,-272,8197.321087
214, 2018-07-09 08:36:04,-8192,610,-3240,8830.547208
215, 2018-07-09 08:36:04,-8192,2955,-3116,9249.34295
216, 2018-07-09 08:36:04,-8192,3569,-2118,9183.275505
217, 2018-07-09 08:36:04,-8192,-585,1547,8357.290111
218, 2018-07-09 08:36:04,-8192,-2912,2394,9017.751604
219, 2018-07-09 08:36:04,-5616,775,3792,6820.509145
220, 2018-07-09 08:36:04,-6449,3551,-908,7417.793877
221, 2018-07-09 08:36:04,-8192,102,-925,8244.688775
222, 2018-07-09 08:36:04,-8192,-1738,-123,8375.239519
223, 2018-07-09 08:36:04,-6637,243,916,6704.317564
224, 2018-07-09 08:36:04,-5936,1743,1080,6280.170778
225, 2018-07-09 08:36:04,-6575,1097,47,6666.05153
226, 2018-07-09 08:36:04,-8134,948,-805,8228.528726
227, 2018-07-09 08:36:04,-7847,1560,-1073,8072.195364
228, 2018-07-09 08:36:04,-6800,1574,-1448,7128.406554
229, 2018-07-09 08:36:04,-6608,1440,-631,6792.453533
230, 2018-07-09 08:36:04,-6942,1061,-1226,7128.82606
231, 2018-07-09 08:36:04,-7763,1311,-2283,8197.254357
232, 2018-07-09 08:36:04,-8192,1427,-1839,8516.285223
233, 2018-07-09 08:36:04,-7850,2086,-1775,8314.115768
234, 2018-07-09 08:36:04,-7283,2090,-2524,7986.286058
235, 2018-07-09 08:36:04,-8192,432,-1179,8287.673316
236, 2018-07-09 08:36:04,-8192,1687,-1358,8473.428881
237, 2018-07-09 08:36:04,-8192,1491,1650,8488.48897
238, 2018-07-09 08:36:04,-6364,-700,3742,7415.730578
239, 2018-07-09 08:36:04,-4222,-1936,2318,5191.002215
240, 2018-07-09 08:36:04,-4510,-176,471,4537.941934
241, 2018-07-09 08:36:04,-8192,3761,-3153,9549.627951
242, 2018-07-09 08:36:05,-8192,3381,101,8862.856537
243, 2018-07-09 08:36:05,-6379,368,1180,6497.650729
244, 2018-07-09 08:36:05,-5801,-76,-328,5810.762515
245, 2018-07-09 08:36:05,-6281,237,-2023,6603.003786
246, 2018-07-09 08:36:05,-7371,967,-616,7459.637123
247, 2018-07-09 08:36:05,-7753,-98,-1155,7839.173298
248, 2018-07-09 08:36:05,-7388,-408,-704,7432.672736
249, 2018-07-09 08:36:05,-6805,-177,-942,6872.169817
250, 2018-07-09 08:36:05,-7862,-143,-1488,8002.851804
251, 2018-07-09 08:36:05,-8192,152,-1154,8274.278458
252, 2018-07-09 08:36:05,-7789,579,-592,7832.893846
253, 2018-07-09 08:36:05,-7739,-329,-118,7746.888795
254, 2018-07-09 08:36:05,-8192,821,-3107,8799.792838
255, 2018-07-09 08:36:05,-8192,3387,-1693,9024.792629
256, 2018-07-09 08:36:05,-8192,1957,-1345,8529.228453
257, 2018-07-09 08:36:05,-8192,-1174,-449,8287.867096
258, 2018-07-09 08:36:05,-8192,-1464,1012,8383.096325
259, 2018-07-09 08:36:05,-7237,1591,883,7462.247584
260, 2018-07-09 08:36:05,-4779,1801,1401,5295.775958
261, 2018-07-09 08:36:05,-5351,-86,2536,5922.152734
262, 2018-07-09 08:36:05,-8192,545,-1090,8282.148815
263, 2018-07-09 08:36:05,-8192,1536,-361,8342.570407
264, 2018-07-09 08:36:05,-7236,1116,271,7326.567614
265, 2018-07-09 08:36:05,-7006,1150,-604,7125.401883
266, 2018-07-09 08:36:05,-6912,1211,-705,7052.608737
267, 2018-07-09 08:36:05,-7290,436,-604,7327.960972
268, 2018-07-09 08:36:05,-7350,376,-159,7361.328481
269, 2018-07-09 08:36:05,-7301,1114,-1011,7454.375762
270, 2018-07-09 08:36:05,-7508,1031,-1229,7677.464816
271, 2018-07-09 08:36:05,-7809,843,-391,7864.096324
