No, waktu, accx, accY, accZ,Akselerasi
1, 2018-07-09 08:35:42,-7851,1236,-356,7955.666723
2, 2018-07-09 08:35:42,-7870,1313,-342,7986.102491
3, 2018-07-09 08:35:42,-7890,1030,-326,7963.62204
4, 2018-07-09 08:35:42,-7803,1071,-403,7886.460486
5, 2018-07-09 08:35:42,-7773,1283,-253,7882.234899
6, 2018-07-09 08:35:42,-7921,1408,-224,8048.284351
7, 2018-07-09 08:35:42,-7971,1358,-216,8088.736675
8, 2018-07-09 08:35:42,-7804,1350,-212,7922.743212
9, 2018-07-09 08:35:42,-7881,1247,-302,7984.758857
10, 2018-07-09 08:35:42,-7858,1292,-228,7966.769232
11, 2018-07-09 08:35:42,-7795,1367,-146,7915.303532
12, 2018-07-09 08:35:42,-7834,1481,-145,7974.079383
13, 2018-07-09 08:35:42,-7864,1436,-232,7997.400578
14, 2018-07-09 08:35:42,-7719,1561,298,7880.893731
15, 2018-07-09 08:35:42,-7452,1076,695,7561.289903
16, 2018-07-09 08:35:42,-7580,924,243,7639.975458
17, 2018-07-09 08:35:42,-6954,-523,1928,7235.249063
18, 2018-07-09 08:35:42,-7143,-2825,1540,7834.199002
19, 2018-07-09 08:35:42,-7589,-990,-1208,7748.0504
20, 2018-07-09 08:35:42,-8192,3006,-4723,9922.279426
21, 2018-07-09 08:35:42,-8192,3288,-1031,8887.225045
22, 2018-07-09 08:35:42,-8192,1553,-1560,8482.586457
23, 2018-07-09 08:35:42,-6801,1325,-793,6974.1003
24, 2018-07-09 08:35:42,-6327,2182,-1437,6845.218915
25, 2018-07-09 08:35:42,-6667,1584,-1152,6948.744419
26, 2018-07-09 08:35:42,-7214,693,-1490,7398.793483
27, 2018-07-09 08:35:42,-8046,1199,-1718,8314.279343
28, 2018-07-09 08:35:42,-7742,1076,-1363,7934.362545
29, 2018-07-09 08:35:42,-7535,915,-2072,7868.076893
30, 2018-07-09 08:35:42,-7911,1465,-2346,8380.564539
31, 2018-07-09 08:35:42,-7743,1348,-1671,8035.134971
32, 2018-07-09 08:35:42,-6762,932,-1201,6930.776941
33, 2018-07-09 08:35:43,-6315,85,-1431,6475.662978
34, 2018-07-09 08:35:43,-6913,-144,-1280,7031.977318
35, 2018-07-09 08:35:43,-7190,-231,-525,7212.841742
36, 2018-07-09 08:35:43,-7937,-269,-735,7975.497163
37, 2018-07-09 08:35:43,-8192,-403,-1909,8421.137334
38, 2018-07-09 08:35:43,-8192,-458,-2046,8456.047777
39, 2018-07-09 08:35:43,-8192,385,-2229,8498.560466
40, 2018-07-09 08:35:43,-8192,917,-2195,8530.403156
41, 2018-07-09 08:35:43,-8192,-2193,-73,8480.768951
42, 2018-07-09 08:35:43,-8192,-1200,-1610,8434.5103
43, 2018-07-09 08:35:43,-8192,-1069,-90,8261.944384
44, 2018-07-09 08:35:43,-5909,1197,526,6051.922504
45, 2018-07-09 08:35:43,-4391,1754,1615,4996.561017
46, 2018-07-09 08:35:43,-6464,-103,3826,7512.135582
47, 2018-07-09 08:35:43,-8192,1379,-347,8314.500226
48, 2018-07-09 08:35:43,-8192,1236,-139,8285.884443
49, 2018-07-09 08:35:43,-7739,725,562,7793.175861
50, 2018-07-09 08:35:43,-6693,235,90,6697.729018
51, 2018-07-09 08:35:43,-5718,536,-357,5754.152327
52, 2018-07-09 08:35:43,-6010,674,-150,6049.535189
53, 2018-07-09 08:35:43,-7190,454,-826,7251.516531
54, 2018-07-09 08:35:43,-7236,1477,-1148,7473.896507
55, 2018-07-09 08:35:43,-7226,1589,-701,7431.782962
56, 2018-07-09 08:35:43,-6821,1882,-900,7132.879152
57, 2018-07-09 08:35:43,-6448,1550,-422,6645.095033
58, 2018-07-09 08:35:43,-6755,614,-711,6820.010411
59, 2018-07-09 08:35:43,-8192,1050,-1501,8394.30551
60, 2018-07-09 08:35:43,-8192,1208,-1616,8436.799393
61, 2018-07-09 08:35:43,-8192,1884,-1707,8577.422049
62, 2018-07-09 08:35:43,-8032,2067,-2335,8616.132427
63, 2018-07-09 08:35:43,-7737,1713,-3205,8547.956656
64, 2018-07-09 08:35:43,-8192,1273,-1061,8357.937186
65, 2018-07-09 08:35:43,-8192,2992,-155,8722.668915
66, 2018-07-09 08:35:43,-8192,4092,-861,9197.534941
67, 2018-07-09 08:35:43,-8192,2542,2750,9007.392964
68, 2018-07-09 08:35:43,-6672,-463,2488,7135.831907
69, 2018-07-09 08:35:43,-6616,-2933,1755,7446.742241
70, 2018-07-09 08:35:43,-7064,-1548,627,7258.755334
71, 2018-07-09 08:35:44,-8192,4258,-1106,9298.530206
72, 2018-07-09 08:35:44,-8102,3723,-121,8917.273911
73, 2018-07-09 08:35:44,-5889,891,704,5997.484306
74, 2018-07-09 08:35:44,-6147,-252,47,6152.342806
75, 2018-07-09 08:35:44,-7344,458,-105,7359.016578
76, 2018-07-09 08:35:44,-6673,899,-13,6733.29778
77, 2018-07-09 08:35:44,-6411,356,-58,6421.138606
78, 2018-07-09 08:35:44,-7047,151,-937,7110.624375
79, 2018-07-09 08:35:44,-7959,-87,-375,7968.304399
80, 2018-07-09 08:35:44,-8088,-403,22,8098.063781
81, 2018-07-09 08:35:44,-7973,-102,-780,8011.712239
82, 2018-07-09 08:35:44,-8192,1283,-1003,8352.302796
83, 2018-07-09 08:35:44,-8192,1737,-1078,8443.229062
84, 2018-07-09 08:35:44,-8192,-117,-1461,8322.083513
85, 2018-07-09 08:35:44,-8192,-367,-1758,8386.543805
86, 2018-07-09 08:35:44,-8192,1164,-3288,8903.634314
87, 2018-07-09 08:35:44,-8192,1643,-1636,8513.80109
88, 2018-07-09 08:35:44,-8192,48,928,8244.534675
89, 2018-07-09 08:35:44,-8192,-807,2226,8527.320153
90, 2018-07-09 08:35:44,-6848,731,3645,7792.014502
91, 2018-07-09 08:35:44,-4684,1827,3161,5938.830356
92, 2018-07-09 08:35:44,-6403,2429,2353,7241.205632
93, 2018-07-09 08:35:44,-8192,1679,-3668,9131.381549
94, 2018-07-09 08:35:44,-8192,-586,-734,8245.666498
95, 2018-07-09 08:35:44,-6708,-1226,1593,7002.712974
96, 2018-07-09 08:35:44,-5557,-180,964,5642.866736
97, 2018-07-09 08:35:44,-5891,902,142,5961.346241
98, 2018-07-09 08:35:44,-7359,500,-719,7410.927202
99, 2018-07-09 08:35:44,-6776,1554,145,6953.42484
100, 2018-07-09 08:35:44,-7409,1785,-975,7683.106859
101, 2018-07-09 08:35:44,-7457,2180,-1511,7914.693298
102, 2018-07-09 08:35:44,-7025,2136,-1462,7486.692527
103, 2018-07-09 08:35:44,-6691,1800,-1158,7024.987189
104, 2018-07-09 08:35:44,-7376,748,-1902,7653.919519
105, 2018-07-09 08:35:44,-8192,1217,-1930,8503.814027
106, 2018-07-09 08:35:44,-8192,1062,-2054,8512.086936
107, 2018-07-09 08:35:44,-8192,2305,-1611,8661.247601
108, 2018-07-09 08:35:44,-8124,2986,-2776,9089.650598
109, 2018-07-09 08:35:44,-8177,970,-3133,8810.216683
110, 2018-07-09 08:35:44,-8192,686,-181,8222.665079
111, 2018-07-09 08:35:45,-8192,3321,-230,8842.556474
112, 2018-07-09 08:35:45,-8192,1980,2830,8890.341051
113, 2018-07-09 08:35:45,-7090,-1145,4370,8406.903413
114, 2018-07-09 08:35:45,-6874,-2616,2355,7722.781688
115, 2018-07-09 08:35:45,-8192,-512,-2340,8535.022437
116, 2018-07-09 08:35:45,-8192,4163,-519,9203.738045
117, 2018-07-09 08:35:45,-6818,4490,486,8178.106138
118, 2018-07-09 08:35:45,-5827,2514,910,6411.101699
119, 2018-07-09 08:35:45,-5962,-282,155,5970.677767
120, 2018-07-09 08:35:45,-6641,-260,-933,6711.256961
121, 2018-07-09 08:35:45,-6975,719,-514,7030.773926
122, 2018-07-09 08:35:45,-7395,480,-536,7429.920659
123, 2018-07-09 08:35:45,-7219,-404,-911,7287.461698
124, 2018-07-09 08:35:45,-6643,-379,-1015,6730.77373
125, 2018-07-09 08:35:45,-6599,202,-697,6638.781063
126, 2018-07-09 08:35:45,-7320,451,-1307,7449.432864
127, 2018-07-09 08:35:45,-8192,868,-1703,8412.044757
128, 2018-07-09 08:35:45,-8192,1628,-1183,8435.563822
129, 2018-07-09 08:35:45,-8192,418,-1009,8264.482379
130, 2018-07-09 08:35:45,-8192,-896,-1595,8393.789669
131, 2018-07-09 08:35:45,-8192,1755,-3676,9148.872335
132, 2018-07-09 08:35:45,-8192,1529,-2228,8626.163052
133, 2018-07-09 08:35:45,-8192,445,-770,8240.132827
134, 2018-07-09 08:35:45,-8192,-315,873,8244.405254
135, 2018-07-09 08:35:45,-7673,277,2051,7947.21706
136, 2018-07-09 08:35:45,-3724,2196,2156,4831.037984
137, 2018-07-09 08:35:45,-4476,1086,2971,5480.950009
138, 2018-07-09 08:35:45,-8192,46,1536,8334.883083
139, 2018-07-09 08:35:45,-8192,172,-894,8242.431923
140, 2018-07-09 08:35:45,-7339,-55,669,7369.634116
141, 2018-07-09 08:35:45,-5793,549,421,5834.165836
142, 2018-07-09 08:35:45,-5837,1505,-56,6028.161411
143, 2018-07-09 08:35:45,-5927,1610,449,6158.167747
144, 2018-07-09 08:35:45,-7419,787,-287,7466.143516
145, 2018-07-09 08:35:45,-7445,1282,-493,7570.640528
146, 2018-07-09 08:35:45,-7350,1397,-833,7527.814955
147, 2018-07-09 08:35:45,-6825,1584,-394,7017.472266
148, 2018-07-09 08:35:45,-7136,1576,-823,7354.155356
149, 2018-07-09 08:35:45,-8192,1407,-1774,8499.152252
150, 2018-07-09 08:35:45,-8192,1084,-1873,8473.018883
151, 2018-07-09 08:35:45,-8192,1575,-2199,8626.99774
152, 2018-07-09 08:35:46,-8192,1709,-2027,8610.358529
153, 2018-07-09 08:35:46,-7984,2375,-2026,8572.60503
154, 2018-07-09 08:35:46,-8192,1786,-1652,8545.628356
155, 2018-07-09 08:35:46,-8192,1916,-1187,8496.404475
156, 2018-07-09 08:35:46,-8192,3422,196,8880.16689
157, 2018-07-09 08:35:46,-8192,1244,1764,8471.605279
158, 2018-07-09 08:35:46,-6503,-1347,4181,7847.558792
159, 2018-07-09 08:35:46,-5086,-1992,2455,5988.529452
160, 2018-07-09 08:35:46,-5645,-344,-1127,5766.670617
161, 2018-07-09 08:35:46,-8192,3171,-2272,9073.372526
162, 2018-07-09 08:35:46,-8192,2550,143,8580.898146
163, 2018-07-09 08:35:46,-6456,1443,1134,6711.791192
164, 2018-07-09 08:35:46,-5900,734,813,6000.810362
165, 2018-07-09 08:35:46,-6517,753,-1106,6652.93424
166, 2018-07-09 08:35:46,-6434,982,-666,6542.494631
167, 2018-07-09 08:35:46,-6906,842,-104,6957.917505
168, 2018-07-09 08:35:46,-7476,-138,-409,7488.451175
169, 2018-07-09 08:35:46,-7396,-354,-580,7427.148309
170, 2018-07-09 08:35:46,-6600,165,-848,6656.299948
171, 2018-07-09 08:35:46,-7321,155,-1255,7429.407177
172, 2018-07-09 08:35:46,-8192,36,-1548,8337.053676
173, 2018-07-09 08:35:46,-8179,450,-993,8251.338679
174, 2018-07-09 08:35:46,-7755,-452,-1388,7891.189581
175, 2018-07-09 08:35:46,-8192,-1010,-2098,8516.488009
176, 2018-07-09 08:35:46,-8192,874,-2786,8696.81183
177, 2018-07-09 08:35:46,-8192,2173,-1617,8628.17953
178, 2018-07-09 08:35:46,-8192,515,-221,8211.146692
179, 2018-07-09 08:35:46,-8192,-1492,1218,8415.369986
180, 2018-07-09 08:35:46,-7935,-1417,3194,8670.279696
181, 2018-07-09 08:35:46,-4056,1605,1829,4729.947357
182, 2018-07-09 08:35:46,-5190,2370,1233,5837.232992
183, 2018-07-09 08:35:46,-8192,1135,109,8270.971527
184, 2018-07-09 08:35:46,-8192,144,-479,8207.255388
185, 2018-07-09 08:35:46,-8192,-437,210,8206.334931
186, 2018-07-09 08:35:46,-6082,-332,838,6148.430044
187, 2018-07-09 08:35:46,-5711,794,22,5765.972685
188, 2018-07-09 08:35:46,-6045,1743,-565,6316.58919
189, 2018-07-09 08:35:46,-7101,1242,-461,7223.523102
190, 2018-07-09 08:35:47,-7402,1389,-379,7540.727153
191, 2018-07-09 08:35:47,-7311,921,-803,7412.406559
192, 2018-07-09 08:35:47,-6718,1589,-977,6972.157055
193, 2018-07-09 08:35:47,-6820,1560,-1052,7074.793566
194, 2018-07-09 08:35:47,-7167,1515,-950,7386.718757
195, 2018-07-09 08:35:47,-8192,1865,-1836,8599.882848
196, 2018-07-09 08:35:47,-8192,1600,-1987,8580.036888
197, 2018-07-09 08:35:47,-8192,1711,-2009,8606.536237
198, 2018-07-09 08:35:47,-8054,1718,-1987,8471.517515
199, 2018-07-09 08:35:47,-7955,1798,-2075,8415.488934
200, 2018-07-09 08:35:47,-8192,2216,-506,8501.503161
201, 2018-07-09 08:35:47,-8192,2721,-1835,8824.960623
202, 2018-07-09 08:35:47,-8192,2113,1262,8553.728836
203, 2018-07-09 08:35:47,-6607,-710,3370,7450.734796
204, 2018-07-09 08:35:47,-5245,-2315,3172,6552.162544
205, 2018-07-09 08:35:47,-5539,-1519,315,5752.139341
206, 2018-07-09 08:35:47,-8192,4458,-2677,9703.038545
207, 2018-07-09 08:35:47,-7498,3515,106,8281.694573
208, 2018-07-09 08:35:47,-5760,763,689,5851.024697
209, 2018-07-09 08:35:47,-6193,-138,-709,6234.979872
210, 2018-07-09 08:35:47,-6408,-385,-575,6445.255154
211, 2018-07-09 08:35:47,-7232,987,-431,7311.754509
212, 2018-07-09 08:35:47,-7664,-76,-627,7689.980559
213, 2018-07-09 08:35:47,-6907,-744,-335,6955.027678
214, 2018-07-09 08:35:47,-6042,-1127,-262,6151.791365
215, 2018-07-09 08:35:47,-6740,-248,-1320,6872.518025
216, 2018-07-09 08:35:47,-8192,878,-1691,8410.661627
217, 2018-07-09 08:35:47,-8192,843,-1109,8309.5965
218, 2018-07-09 08:35:47,-7585,-464,-1227,7697.600275
219, 2018-07-09 08:35:47,-8192,-987,-899,8300.074337
220, 2018-07-09 08:35:47,-8192,655,-3136,8796.1574
221, 2018-07-09 08:35:47,-8192,2278,-2419,8840.232406
222, 2018-07-09 08:35:47,-8192,2635,-1512,8737.175344
223, 2018-07-09 08:35:47,-8192,209,70,8194.964612
224, 2018-07-09 08:35:47,-8192,-1669,1172,8442.038202
225, 2018-07-09 08:35:47,-6143,57,2616,6677.061779
226, 2018-07-09 08:35:47,-3773,1305,2073,4498.431171
227, 2018-07-09 08:35:47,-7902,1370,213,8022.709829
228, 2018-07-09 08:35:48,-8192,1123,-946,8322.554235
229, 2018-07-09 08:35:48,-8192,-374,-729,8232.871978
230, 2018-07-09 08:35:48,-7008,-648,151,7039.514827
231, 2018-07-09 08:35:48,-5663,775,874,5782.220162
232, 2018-07-09 08:35:48,-5642,1754,-101,5909.219999
233, 2018-07-09 08:35:48,-6452,527,-860,6530.362394
234, 2018-07-09 08:35:48,-7425,287,-151,7432.078781
235, 2018-07-09 08:35:48,-7596,719,-620,7655.101371
236, 2018-07-09 08:35:48,-7392,1449,-1048,7605.233001
237, 2018-07-09 08:35:48,-6484,2042,-1408,6942.224715
238, 2018-07-09 08:35:48,-6751,2140,-684,7115.016304
239, 2018-07-09 08:35:48,-7736,1824,-1636,8114.750027
240, 2018-07-09 08:35:48,-8192,1700,-1473,8495.210003
241, 2018-07-09 08:35:48,-8192,1386,-2061,8560.232532
242, 2018-07-09 08:35:48,-8192,1887,-2151,8677.351785
243, 2018-07-09 08:35:48,-8067,2359,-2312,8717.035849
244, 2018-07-09 08:35:48,-8192,1201,-3030,8816.584656
245, 2018-07-09 08:35:48,-8192,1236,-1479,8415.699674
246, 2018-07-09 08:35:48,-8192,3437,-596,8903.766001
247, 2018-07-09 08:35:48,-8192,2992,902,8767.81227
248, 2018-07-09 08:35:48,-7946,483,2987,8502.609835
249, 2018-07-09 08:35:48,-5368,-1417,2800,6217.983033
250, 2018-07-09 08:35:48,-5303,-2184,1260,5871.904717
251, 2018-07-09 08:35:48,-8192,-494,-1262,8303.34535
252, 2018-07-09 08:35:48,-8192,3932,-2006,9305.564142
253, 2018-07-09 08:35:48,-7788,2537,119,8191.671014
254, 2018-07-09 08:35:48,-6574,1147,610,6701.133113
255, 2018-07-09 08:35:48,-6116,769,141,6165.768241
256, 2018-07-09 08:35:48,-6389,335,-1530,6578.179535
257, 2018-07-09 08:35:48,-7046,553,-132,7068.900127
258, 2018-07-09 08:35:48,-6993,-166,-529,7014.944476
259, 2018-07-09 08:35:48,-6967,-597,-976,7060.316848
260, 2018-07-09 08:35:48,-7437,-872,-932,7545.725744
261, 2018-07-09 08:35:48,-7175,300,-506,7199.073621
262, 2018-07-09 08:35:48,-7443,616,-926,7525.634923
263, 2018-07-09 08:35:48,-8192,600,-2132,8486.123261
264, 2018-07-09 08:35:49,-8192,463,-2138,8479.049298
265, 2018-07-09 08:35:49,-8192,1390,-880,8355.558868
266, 2018-07-09 08:35:49,-8192,2194,-2159,8751.215973
267, 2018-07-09 08:35:49,-8192,2452,-3436,9215.59895
268, 2018-07-09 08:35:49,-8192,2733,-965,8689.613225
269, 2018-07-09 08:35:49,-8192,-671,1396,8337.141057
270, 2018-07-09 08:35:49,-8192,-2179,2043,8719.561572
271, 2018-07-09 08:35:49,-7033,-620,3374,7825.047284
272, 2018-07-09 08:35:49,-3891,1204,1676,4404.369762
273, 2018-07-09 08:35:49,-5477,2977,1655,6449.735111
274, 2018-07-09 08:35:49,-8192,1257,-3738,9091.840133
275, 2018-07-09 08:35:49,-8192,460,-751,8239.202935
276, 2018-07-09 08:35:49,-8098,-782,490,8150.41275
277, 2018-07-09 08:35:49,-5454,810,562,5542.387572
278, 2018-07-09 08:35:49,-5497,688,-59,5540.201621
279, 2018-07-09 08:35:49,-6484,550,-172,6509.557589
280, 2018-07-09 08:35:49,-7331,1097,-296,7418.529908
281, 2018-07-09 08:35:49,-7864,1873,-1554,8231.982811
282, 2018-07-09 08:35:49,-7044,2425,-1340,7569.290654
283, 2018-07-09 08:35:49,-6913,1822,-1417,7288.150794
284, 2018-07-09 08:35:49,-7340,1404,-1579,7638.066313
285, 2018-07-09 08:35:49,-8081,1607,-1585,8390.306013
286, 2018-07-09 08:35:49,-8192,1047,-1793,8451.030825
287, 2018-07-09 08:35:49,-8192,1290,-1637,8452.971844
288, 2018-07-09 08:35:49,-7922,2558,-1755,8507.730191
289, 2018-07-09 08:35:49,-7629,3109,-2196,8525.839431
290, 2018-07-09 08:35:49,-8192,2064,-2271,8747.936957
291, 2018-07-09 08:35:49,-8192,2643,-677,8634.387181
292, 2018-07-09 08:35:49,-8192,1935,-1298,8516.918046
293, 2018-07-09 08:35:49,-8192,1052,-304,8264.864427
294, 2018-07-09 08:35:49,-6800,-470,1244,6928.812019
295, 2018-07-09 08:35:49,-4362,-1361,2151,5050.362957
296, 2018-07-09 08:35:49,-3842,-934,2839,4867.570338
297, 2018-07-09 08:35:49,-6402,972,1726,6701.45238
298, 2018-07-09 08:35:49,-8192,3694,-7192,11509.96803
299, 2018-07-09 08:35:49,-8192,2902,-306,8696.212049
300, 2018-07-09 08:35:49,-7791,1831,612,8026.629803
301, 2018-07-09 08:35:49,-6236,340,-128,6246.573461
302, 2018-07-09 08:35:49,-6101,-492,-1970,6430.020606
303, 2018-07-09 08:35:49,-6631,274,-827,6687.986693
304, 2018-07-09 08:35:49,-7309,1174,-1137,7489.494375
305, 2018-07-09 08:35:49,-7479,551,-1315,7613.689447
306, 2018-07-09 08:35:49,-7059,197,-1529,7225.381028
307, 2018-07-09 08:35:50,-7038,168,-1527,7203.707171
308, 2018-07-09 08:35:50,-7512,669,-1706,7732.279159
309, 2018-07-09 08:35:50,-7680,1031,-1760,7946.254527
310, 2018-07-09 08:35:50,-7461,1151,-1557,7708.149648
311, 2018-07-09 08:35:50,-7605,-882,-576,7677.611933
312, 2018-07-09 08:35:50,-8192,-864,-1013,8299.489683
313, 2018-07-09 08:35:50,-8192,1842,-2025,8637.271155
314, 2018-07-09 08:35:50,-8192,2528,-716,8603.040393
