No, id_percobaan, id_pasien, waktu, accx, accY, accZ, gyroX, gyroY, gyroZ, roll, pitch
1,9,2, 2018-07-09 09:07:28,-7714,1920,1166,-392,-5706,5,100.57,4.57
2,9,2, 2018-07-09 09:07:28,-7800,1869,1203,-427,-5645,-4,100.57,4.56
3,9,2, 2018-07-09 09:07:28,-7825,1858,1191,-351,-5629,-8,100.57,4.55
4,9,2, 2018-07-09 09:07:28,-7695,1910,1153,-278,-5602,13,100.57,4.56
5,9,2, 2018-07-09 09:07:28,-7708,1826,1250,-414,-5687,1,100.57,4.55
6,9,2, 2018-07-09 09:07:28,-7777,1771,1093,-762,-5402,-43,100.56,4.53
7,9,2, 2018-07-09 09:07:28,-7772,1804,1241,-371,-4944,-20,100.5,4.5
8,9,2, 2018-07-09 09:07:28,-7739,1873,1447,-611,-5313,-1,100.48,4.48
9,9,2, 2018-07-09 09:07:28,-7779,1899,1147,-855,-5164,-14,100.45,4.45
10,9,2, 2018-07-09 09:07:28,-7656,1963,1057,-424,-5581,-42,100.44,4.42
11,9,2, 2018-07-09 09:07:28,-7643,2026,1102,-19,-5955,49,100.47,4.44
12,9,2, 2018-07-09 09:07:28,-7769,1988,1226,155,-6076,49,100.49,4.47
13,9,2, 2018-07-09 09:07:28,-7845,1804,1180,231,-5901,56,100.52,4.52
14,9,2, 2018-07-09 09:07:28,-7839,1668,1129,-20,-5603,19,100.52,4.55
15,9,2, 2018-07-09 09:07:28,-7787,1664,1244,-198,-5526,-45,100.51,4.56
16,9,2, 2018-07-09 09:07:28,-7695,1762,1167,-452,-5555,-22,100.5,4.55
17,9,2, 2018-07-09 09:07:28,-7717,1870,1105,-526,-5660,33,100.51,4.53
18,9,2, 2018-07-09 09:07:28,-7767,1872,1226,-454,-5697,28,100.51,4.52
19,9,2, 2018-07-09 09:07:28,-7696,1818,1224,-558,-5764,-40,100.52,4.5
20,9,2, 2018-07-09 09:07:28,-7795,1910,1216,-517,-5809,60,100.54,4.48
21,9,2, 2018-07-09 09:07:28,-7809,1861,1172,-393,-5664,5,100.55,4.47
22,9,2, 2018-07-09 09:07:28,-7687,1800,1154,-374,-5674,-113,100.55,4.46
23,9,2, 2018-07-09 09:07:28,-7656,1787,1211,-402,-5924,-145,100.57,4.45
24,9,2, 2018-07-09 09:07:28,-7809,1834,1211,-458,-6034,-61,100.59,4.44
25,9,2, 2018-07-09 09:07:28,-7814,1772,1236,-573,-5868,-65,100.61,4.42
26,9,2, 2018-07-09 09:07:28,-7781,1692,1224,-651,-5804,-104,100.61,4.4
27,9,2, 2018-07-09 09:07:28,-7703,1828,1250,-618,-5863,-34,100.63,4.38
28,9,2, 2018-07-09 09:07:28,-7780,1932,1149,-437,-5886,23,100.65,4.37
29,9,2, 2018-07-09 09:07:28,-7772,1920,1237,-337,-5689,32,100.65,4.36
30,9,2, 2018-07-09 09:07:28,-7662,1899,1240,-342,-5653,10,100.66,4.36
31,9,2, 2018-07-09 09:07:28,-7759,1854,1254,-220,-5881,-46,100.68,4.36
32,9,2, 2018-07-09 09:07:28,-7787,1780,1170,-176,-5683,32,100.68,4.37
33,9,2, 2018-07-09 09:07:28,-7699,1902,1278,-157,-5795,82,100.69,4.38
34,9,2, 2018-07-09 09:07:28,-7740,1886,1257,-80,-5729,78,100.7,4.39
35,9,2, 2018-07-09 09:07:28,-7786,1807,1278,-107,-5747,32,100.71,4.4
36,9,2, 2018-07-09 09:07:28,-7758,1799,1265,-293,-5713,-7,100.72,4.42
37,9,2, 2018-07-09 09:07:28,-7716,1829,1208,-196,-5713,-15,100.73,4.42
38,9,2, 2018-07-09 09:07:28,-7756,1906,1206,-59,-5754,73,100.74,4.44
39,9,2, 2018-07-09 09:07:29,-7741,1810,1256,-60,-5729,24,100.74,4.46
40,9,2, 2018-07-09 09:07:29,-7757,1893,1221,-57,-5675,26,100.75,4.48
41,9,2, 2018-07-09 09:07:29,-7765,1822,1214,-55,-5627,-14,100.75,4.5
42,9,2, 2018-07-09 09:07:29,-7686,1803,1291,-103,-5680,2,100.76,4.52
43,9,2, 2018-07-09 09:07:29,-7730,1895,1247,-5,-5692,41,100.76,4.54
44,9,2, 2018-07-09 09:07:29,-7775,1847,1266,-72,-5654,25,100.76,4.56
45,9,2, 2018-07-09 09:07:29,-7771,1778,1262,-135,-5574,26,100.76,4.56
46,9,2, 2018-07-09 09:07:29,-7707,1901,1262,-39,-5666,10,100.76,4.58
47,9,2, 2018-07-09 09:07:29,-7803,1831,1247,-231,-5634,-5,100.76,4.59
48,9,2, 2018-07-09 09:07:29,-7747,1758,1203,-79,-5638,4,100.76,4.6
49,9,2, 2018-07-09 09:07:29,-7697,1964,1222,2,-5709,64,100.77,4.63
50,9,2, 2018-07-09 09:07:29,-7875,1814,1221,17,-5462,29,100.76,4.66
51,9,2, 2018-07-09 09:07:29,-7598,1765,1377,-393,-5577,44,100.75,4.66
52,9,2, 2018-07-09 09:07:29,-7772,1873,1192,-335,-5808,125,100.76,4.65
53,9,2, 2018-07-09 09:07:29,-7858,1840,1125,-151,-5374,66,100.74,4.66
54,9,2, 2018-07-09 09:07:29,-7577,1836,1381,-242,-5516,232,100.73,4.67
55,9,2, 2018-07-09 09:07:29,-7771,1940,1309,-414,-6054,125,100.76,4.66
56,9,2, 2018-07-09 09:07:29,-7777,1957,1187,-344,-5759,31,100.78,4.65
57,9,2, 2018-07-09 09:07:29,-7676,1831,1269,-371,-5833,39,100.79,4.64
58,9,2, 2018-07-09 09:07:29,-7716,1973,1344,-219,-5771,128,100.81,4.64
59,9,2, 2018-07-09 09:07:29,-7849,1795,1399,-239,-5644,16,100.82,4.65
60,9,2, 2018-07-09 09:07:29,-7671,1808,1237,-399,-5621,-33,100.81,4.64
61,9,2, 2018-07-09 09:07:29,-7738,1934,1352,-447,-5887,108,100.84,4.63
62,9,2, 2018-07-09 09:07:29,-7797,1827,1359,-596,-5705,54,100.84,4.6
63,9,2, 2018-07-09 09:07:29,-7752,1782,1326,-560,-5653,-2,100.85,4.57
64,9,2, 2018-07-09 09:07:29,-7722,1996,1337,-416,-5628,65,100.85,4.56
65,9,2, 2018-07-09 09:07:29,-7788,1922,1342,-395,-5589,101,100.84,4.55
66,9,2, 2018-07-09 09:07:29,-7739,1683,1365,-484,-5621,-33,100.84,4.53
67,9,2, 2018-07-09 09:07:29,-7777,1982,1289,-335,-5622,63,100.84,4.53
68,9,2, 2018-07-09 09:07:29,-7751,1922,1329,-363,-5500,46,100.83,4.52
69,9,2, 2018-07-09 09:07:29,-7655,1834,1370,-469,-5768,-41,100.84,4.51
70,9,2, 2018-07-09 09:07:30,-7817,2000,1258,-207,-5606,90,100.85,4.51
71,9,2, 2018-07-09 09:07:30,-7733,1800,1301,-298,-5450,26,100.83,4.51
72,9,2, 2018-07-09 09:07:30,-7584,1829,1376,-420,-5673,-52,100.83,4.5
73,9,2, 2018-07-09 09:07:30,-7809,2038,1319,-201,-5546,13,100.83,4.51
74,9,2, 2018-07-09 09:07:30,-7795,1849,1306,-320,-5337,-33,100.8,4.51
75,9,2, 2018-07-09 09:07:30,-7539,1900,1266,-390,-5511,-64,100.79,4.5
76,9,2, 2018-07-09 09:07:30,-7870,1986,1306,-90,-5644,43,100.79,4.52
77,9,2, 2018-07-09 09:07:30,-7743,1799,1303,-303,-5251,-66,100.76,4.52
78,9,2, 2018-07-09 09:07:30,-7573,1915,1277,-445,-5632,-75,100.76,4.5
79,9,2, 2018-07-09 09:07:30,-7850,1999,1265,-76,-5716,8,100.77,4.52
80,9,2, 2018-07-09 09:07:30,-7806,1844,1393,-271,-5541,-55,100.76,4.52
81,9,2, 2018-07-09 09:07:30,-7758,1734,1222,-554,-5280,-147,100.74,4.51
82,9,2, 2018-07-09 09:07:30,-7720,2070,1263,-393,-5640,4,100.73,4.49
83,9,2, 2018-07-09 09:07:30,-7806,1986,1165,-344,-5521,-67,100.73,4.49
84,9,2, 2018-07-09 09:07:30,-7661,1837,1207,-206,-5407,-137,100.71,4.49
85,9,2, 2018-07-09 09:07:30,-7689,1849,1332,-254,-5693,-160,100.71,4.5
86,9,2, 2018-07-09 09:07:30,-7835,1960,1165,-171,-5523,-14,100.71,4.5
87,9,2, 2018-07-09 09:07:30,-7766,1727,1196,-349,-5358,-81,100.68,4.5
88,9,2, 2018-07-09 09:07:30,-7727,1867,1223,-363,-5511,-29,100.67,4.5
89,9,2, 2018-07-09 09:07:30,-7745,1935,1239,-216,-5542,28,100.67,4.5
90,9,2, 2018-07-09 09:07:30,-7714,1878,1261,-316,-5570,-106,100.66,4.5
91,9,2, 2018-07-09 09:07:30,-7862,1788,1184,-555,-5374,-126,100.64,4.48
92,9,2, 2018-07-09 09:07:30,-7663,1999,1208,-377,-5449,-5,100.63,4.48
93,9,2, 2018-07-09 09:07:30,-7612,1935,1378,-87,-5832,29,100.64,4.49
94,9,2, 2018-07-09 09:07:30,-7736,1825,1228,-248,-5750,-168,100.66,4.49
95,9,2, 2018-07-09 09:07:30,-7769,1791,1196,-229,-5663,-73,100.66,4.49
96,9,2, 2018-07-09 09:07:30,-7711,1800,1238,-278,-5678,-83,100.66,4.49
97,9,2, 2018-07-09 09:07:30,-7690,1846,1369,-328,-5797,-70,100.68,4.49
98,9,2, 2018-07-09 09:07:30,-7816,1706,1122,-573,-5796,-128,100.7,4.47
99,9,2, 2018-07-09 09:07:30,-7851,1760,1088,-454,-5598,-100,100.69,4.45
100,9,2, 2018-07-09 09:07:30,-7738,1846,1235,-481,-5476,-17,100.68,4.44
101,9,2, 2018-07-09 09:07:30,-7735,1893,1181,-383,-5494,-179,100.66,4.42
102,9,2, 2018-07-09 09:07:30,-7580,1846,1263,-237,-5597,-177,100.66,4.42
103,9,2, 2018-07-09 09:07:30,-7849,1878,1110,-277,-5589,-69,100.66,4.42
104,9,2, 2018-07-09 09:07:31,-7884,1820,1117,-259,-5241,-118,100.63,4.42
105,9,2, 2018-07-09 09:07:31,-7728,1735,1172,-402,-5279,-149,100.61,4.42
106,9,2, 2018-07-09 09:07:31,-7694,1857,1133,-497,-5432,-27,100.59,4.4
107,9,2, 2018-07-09 09:07:31,-7808,1959,1168,-297,-5428,-26,100.57,4.39
108,9,2, 2018-07-09 09:07:31,-7761,1912,1149,-113,-5332,-47,100.55,4.4
109,9,2, 2018-07-09 09:07:31,-7661,1862,1187,-115,-5414,-52,100.54,4.41
110,9,2, 2018-07-09 09:07:31,-7781,1805,1140,-163,-5590,-54,100.54,4.42
111,9,2, 2018-07-09 09:07:31,-7809,1798,1141,-198,-5315,-75,100.51,4.43
112,9,2, 2018-07-09 09:07:31,-7702,1830,1135,-157,-5454,-79,100.5,4.44
113,9,2, 2018-07-09 09:07:31,-7801,1803,1095,-97,-5592,-20,100.5,4.45
114,9,2, 2018-07-09 09:07:31,-7802,1820,1087,-56,-5535,-27,100.49,4.47
115,9,2, 2018-07-09 09:07:31,-7761,1788,1135,-134,-5437,-47,100.47,4.48
116,9,2, 2018-07-09 09:07:31,-7839,1736,1121,-217,-5405,-14,100.45,4.49
117,9,2, 2018-07-09 09:07:31,-7835,1867,1011,49,-5353,-178,100.41,4.51
118,9,2, 2018-07-09 09:07:31,-7671,1799,1126,-59,-5394,-112,100.39,4.53
119,9,2, 2018-07-09 09:07:31,-7750,1811,1008,-61,-5529,27,100.39,4.55
120,9,2, 2018-07-09 09:07:31,-7726,1790,1071,-27,-5693,-13,100.39,4.57
121,9,2, 2018-07-09 09:07:31,-7774,1800,1055,-72,-5792,-41,100.4,4.58
122,9,2, 2018-07-09 09:07:31,-7772,1754,1113,-28,-5613,-93,100.39,4.6
123,9,2, 2018-07-09 09:07:31,-7743,1695,1181,-48,-5700,-40,100.4,4.61
124,9,2, 2018-07-09 09:07:31,-7890,1801,1025,7,-5630,-61,100.39,4.63
125,9,2, 2018-07-09 09:07:31,-7781,1769,1067,107,-5527,-68,100.39,4.66
126,9,2, 2018-07-09 09:07:31,-7735,1634,1133,-112,-5644,-66,100.38,4.68
127,9,2, 2018-07-09 09:07:31,-7802,1733,1101,-132,-5656,24,100.39,4.69
128,9,2, 2018-07-09 09:07:31,-7807,1741,1170,-188,-5431,-3,100.37,4.69
129,9,2, 2018-07-09 09:07:31,-7741,1718,1053,-305,-5646,-62,100.37,4.68
130,9,2, 2018-07-09 09:07:31,-7812,1724,1184,-172,-5639,-1,100.37,4.69
131,9,2, 2018-07-09 09:07:31,-7824,1751,1069,-319,-5490,-16,100.36,4.69
132,9,2, 2018-07-09 09:07:31,-7771,1712,1048,-327,-5474,-54,100.34,4.68
133,9,2, 2018-07-09 09:07:31,-7777,1746,1016,-343,-5501,12,100.34,4.67
134,9,2, 2018-07-09 09:07:31,-7788,1738,1059,-382,-5632,-61,100.33,4.66
135,9,2, 2018-07-09 09:07:31,-7777,1739,1084,-421,-5569,25,100.33,4.65
136,9,2, 2018-07-09 09:07:31,-7856,1730,1072,-454,-5529,-32,100.31,4.63
137,9,2, 2018-07-09 09:07:31,-7778,1744,1063,-487,-5585,12,100.31,4.61
138,9,2, 2018-07-09 09:07:32,-7784,1784,1052,-413,-5697,17,100.31,4.6
139,9,2, 2018-07-09 09:07:32,-7790,1778,1033,-377,-5649,27,100.31,4.59
140,9,2, 2018-07-09 09:07:32,-7779,1772,1086,-382,-5726,-28,100.32,4.58
141,9,2, 2018-07-09 09:07:32,-7800,1771,1071,-342,-5577,-9,100.31,4.57
142,9,2, 2018-07-09 09:07:32,-7775,1735,1079,-378,-5707,28,100.31,4.56
143,9,2, 2018-07-09 09:07:32,-7869,1762,1003,-321,-5584,50,100.31,4.56
144,9,2, 2018-07-09 09:07:32,-7707,1759,1056,-296,-5677,-41,100.31,4.55
145,9,2, 2018-07-09 09:07:32,-7816,1765,1046,-283,-5622,41,100.31,4.55
146,9,2, 2018-07-09 09:07:32,-7768,1728,1018,-197,-5634,33,100.31,4.55
147,9,2, 2018-07-09 09:07:32,-7817,1799,1045,-158,-5609,42,100.31,4.56
148,9,2, 2018-07-09 09:07:32,-7757,1749,1076,-190,-5568,-46,100.3,4.57
149,9,2, 2018-07-09 09:07:32,-7778,1762,966,-190,-5591,55,100.29,4.57
150,9,2, 2018-07-09 09:07:32,-7777,1728,1101,-188,-5752,19,100.3,4.58
151,9,2, 2018-07-09 09:07:32,-7792,1726,1078,-304,-5734,76,100.31,4.57
152,9,2, 2018-07-09 09:07:32,-7812,1761,1087,-316,-5657,67,100.31,4.57
153,9,2, 2018-07-09 09:07:32,-7814,1805,1052,-230,-5526,21,100.31,4.57
154,9,2, 2018-07-09 09:07:32,-7809,1699,980,-206,-5610,100,100.3,4.57
155,9,2, 2018-07-09 09:07:32,-7734,1706,1122,-296,-5678,49,100.3,4.57
156,9,2, 2018-07-09 09:07:32,-7772,1781,1062,-328,-5766,10,100.31,4.56
157,9,2, 2018-07-09 09:07:32,-7744,1749,1059,-290,-5762,21,100.32,4.56
158,9,2, 2018-07-09 09:07:32,-7859,1751,1111,-321,-5775,39,100.33,4.56
159,9,2, 2018-07-09 09:07:32,-7825,1787,984,-316,-5666,44,100.33,4.55
160,9,2, 2018-07-09 09:07:32,-7789,1808,1105,-290,-5644,54,100.33,4.55
161,9,2, 2018-07-09 09:07:32,-7741,1781,1145,-276,-5586,2,100.33,4.55
162,9,2, 2018-07-09 09:07:32,-7809,1756,1029,-215,-5671,48,100.33,4.55
163,9,2, 2018-07-09 09:07:32,-7773,1767,1060,-210,-5621,49,100.33,4.55
164,9,2, 2018-07-09 09:07:32,-7788,1771,1031,-342,-5660,21,100.33,4.55
165,9,2, 2018-07-09 09:07:32,-7785,1769,1088,-304,-5569,-8,100.33,4.54
166,9,2, 2018-07-09 09:07:32,-7741,1748,1074,-333,-5694,60,100.33,4.54
167,9,2, 2018-07-09 09:07:32,-7779,1807,1034,-313,-5746,116,100.33,4.53
168,9,2, 2018-07-09 09:07:32,-7794,1858,1036,-287,-5703,42,100.34,4.53
169,9,2, 2018-07-09 09:07:32,-7738,1764,1139,-264,-5678,46,100.35,4.53
170,9,2, 2018-07-09 09:07:32,-7790,1781,1100,-269,-5802,56,100.35,4.53
171,9,2, 2018-07-09 09:07:32,-7781,1780,1025,-284,-5807,60,100.37,4.53
172,9,2, 2018-07-09 09:07:32,-7834,1780,1102,-355,-5728,39,100.38,4.52
173,9,2, 2018-07-09 09:07:32,-7772,1773,1199,-364,-5850,88,100.39,4.51
