No, waktu, accx, accY, accZ, gyroX, gyroY, gyroZ, roll, pitch,Akselerasi
1, 2018-07-09 07:15:20,-7111,1537,56,-1123,2761,-2433,-57.75,-27.45,7275.426173
2, 2018-07-09 07:15:20,-5723,971,130,-1399,5125,-2292,-58.01,-27.46,5806.244053
3, 2018-07-09 07:15:20,-5115,324,-215,-2329,5018,-525,-58.47,-27.54,5129.758864
4, 2018-07-09 07:15:20,-5983,964,-804,-2555,3597,-640,-58.64,-27.64,6113.264349
5, 2018-07-09 07:15:20,-6297,1341,-899,-2308,2040,-2055,-58.79,-27.71,6500.668504
6, 2018-07-09 07:15:20,-5906,982,-215,-2556,1717,-2673,-58.88,-27.79,5990.941913
7, 2018-07-09 07:15:20,-6136,883,175,-2593,-1945,-2728,-58.77,-27.89,6201.677999
8, 2018-07-09 07:15:20,-7488,745,-1522,-2113,-164,-3292,-58.71,-27.95,7677.346742
9, 2018-07-09 07:15:20,-8192,1767,-2153,-3112,589,-3996,-58.77,-28.05,8652.546562
10, 2018-07-09 07:15:20,-7977,1397,-565,-2412,1699,-3138,-58.92,-28.13,8118.08863
11, 2018-07-09 07:15:20,-7413,669,1245,-2624,-3209,-1801,-58.83,-28.21,7546.532648
12, 2018-07-09 07:15:20,-7341,1347,981,-4070,-954,-26,-58.79,-28.37,7527.752055
13, 2018-07-09 07:15:20,-7462,801,4105,-6045,-1803,4434,-58.71,-28.63,8554.184356
14, 2018-07-09 07:15:20,-8192,625,4957,-5831,-6438,7063,-58.42,-28.95,9595.381076
15, 2018-07-09 07:15:20,-8192,2387,1234,-1872,-5588,4591,-58.11,-29.03,8621.449356
16, 2018-07-09 07:15:20,-8192,4387,526,849,-17,2800,-58.11,-28.88,9307.594157
17, 2018-07-09 07:15:20,-8192,3007,1193,1675,908,3489,-58.22,-28.68,8807.619542
18, 2018-07-09 07:15:20,-8192,-423,-837,2258,6559,1764,-58.6,-28.49,8245.505564
19, 2018-07-09 07:15:20,-8192,-514,9,1528,12465,-522,-59.38,-28.33,8208.114339
20, 2018-07-09 07:15:20,-5344,1548,429,-1468,7241,-1049,-60.21,-28.3,5580.204387
21, 2018-07-09 07:15:20,-3498,3247,100,-647,2259,-771,-60.36,-28.27,4773.783929
22, 2018-07-09 07:15:20,-3832,4009,293,1944,-5845,-357,-60.03,-28.07,5553.571283
23, 2018-07-09 07:15:20,-6232,3112,-1166,5048,-7170,1305,-59.53,-27.7,7062.713643
24, 2018-07-09 07:15:20,-7652,1821,-1511,8614,-1400,2474,-59.46,-27.12,8009.510971
25, 2018-07-09 07:15:20,-6967,715,-109,9675,-494,2816,-59.44,-26.47,7004.441091
26, 2018-07-09 07:15:20,-6454,-216,302,7654,1212,2219,-59.46,-25.92,6464.671376
27, 2018-07-09 07:15:20,-6571,-8,-561,5168,599,1754,-59.49,-25.53,6594.909097
28, 2018-07-09 07:15:20,-6814,399,-509,3654,-769,1510,-59.47,-25.23,6844.624022
29, 2018-07-09 07:15:20,-7257,373,629,1191,-3619,857,-59.28,-25.06,7293.752052
30, 2018-07-09 07:15:20,-8092,182,-539,-1235,-2084,-278,-59.15,-25.06,8111.973188
31, 2018-07-09 07:15:21,-8147,793,-2768,-1010,5681,-629,-59.46,-25.08,8640.849611
32, 2018-07-09 07:15:21,-7286,785,-1392,733,2234,1096,-59.75,-24.97,7459.201365
33, 2018-07-09 07:15:21,-6435,706,-631,1148,516,2652,-59.78,-24.84,6504.292583
34, 2018-07-09 07:15:21,-5566,1168,-1557,873,3897,2192,-59.98,-24.66,5896.5099
35, 2018-07-09 07:15:21,-5417,2234,-1603,-564,2296,1917,-60.14,-24.6,6074.887159
36, 2018-07-09 07:15:21,-5497,2442,-169,-587,-3384,2464,-59.96,-24.56,6017.385977
37, 2018-07-09 07:15:21,-6610,1301,-515,559,-4177,3165,-59.42,-24.43,6756.472896
38, 2018-07-09 07:15:21,-8192,530,-2181,1729,-2943,2605,-59.35,-24.28,8493.911054
39, 2018-07-09 07:15:21,-8192,-421,407,3198,-8814,-2254,-58.98,-24.05,8212.90168
40, 2018-07-09 07:15:21,-8192,1353,2962,58,-6870,-7616,-58.46,-23.94,8815.493009
41, 2018-07-09 07:15:21,-8192,3097,2948,-1792,2276,-6275,-58.56,-23.94,9240.723835
42, 2018-07-09 07:15:21,-7538,3858,1510,-2920,2089,-1617,-58.73,-24.02,8601.494521
43, 2018-07-09 07:15:21,-8192,6082,-1963,-498,3137,224,-58.87,-23.95,10390.04124
44, 2018-07-09 07:15:21,-8192,6994,-2469,4327,-9379,-6081,-58.45,-23.61,11050.83078
45, 2018-07-09 07:15:21,-8192,2509,3480,7831,2621,-4936,-58.57,-23.01,9247.396661
46, 2018-07-09 07:15:21,-7067,-195,1769,4742,5770,735,-59.04,-22.63,7287.652228
47, 2018-07-09 07:15:21,-4877,-1052,-478,4307,2191,3841,-59.17,-22.34,5012.017259
48, 2018-07-09 07:15:21,-5086,-774,-133,2837,-3843,3803,-59,-22.11,5146.276421
49, 2018-07-09 07:15:21,-6707,846,-72,-435,-8560,2918,-58.46,-22.05,6760.528752
50, 2018-07-09 07:15:21,-7535,1534,1022,-1978,-4052,2306,-58.16,-22.09,7757.181511
51, 2018-07-09 07:15:21,-7328,525,638,-4227,-1890,1131,-58.05,-22.26,7374.432385
52, 2018-07-09 07:15:21,-7266,665,-779,-5519,-438,-235,-58.01,-22.53,7337.834967
53, 2018-07-09 07:15:21,-6766,1758,-824,-5262,1221,-1389,-58.06,-22.8,7039.05505
54, 2018-07-09 07:15:21,-6402,1639,-555,-3994,1944,-1849,-58.16,-22.99,6631.738083
55, 2018-07-09 07:15:21,-7007,1192,-674,-3727,2363,-1745,-58.3,-23.15,7139.551036
56, 2018-07-09 07:15:21,-7443,1554,-1245,-2880,4458,-2515,-58.54,-23.27,7704.751132
57, 2018-07-09 07:15:21,-6145,1599,-991,-2678,5742,-3428,-58.93,-23.36,6426.50037
58, 2018-07-09 07:15:21,-4315,839,492,-4801,1714,-2607,-59.06,-23.56,4423.257849
59, 2018-07-09 07:15:21,-4263,810,-166,-5842,680,-1851,-59.09,-23.85,4342.444588
60, 2018-07-09 07:15:21,-5619,1758,-1831,-4271,-1427,-2643,-58.98,-24.07,6165.73483
61, 2018-07-09 07:15:21,-5830,2159,-898,-3031,-3983,-2779,-58.81,-24.19,6281.447683
62, 2018-07-09 07:15:21,-6039,1914,-313,-3088,-5400,-1454,-58.46,-24.3,6342.782197
63, 2018-07-09 07:15:21,-7270,475,-2325,-2491,-1842,-1580,-58.32,-24.4,7647.493053
64, 2018-07-09 07:15:21,-7425,-276,-655,-4089,-700,-3379,-58.27,-24.58,7458.942686
65, 2018-07-09 07:15:21,-6729,815,3000,-6608,-2649,-3167,-58.08,-24.88,7412.399477
66, 2018-07-09 07:15:21,-7563,1522,6391,-9840,-5741,1956,-57.83,-25.39,10018.0005
67, 2018-07-09 07:15:21,-8192,2954,3709,-6183,-14060,6773,-57.1,-25.76,9465.287159
68, 2018-07-09 07:15:21,-8192,3555,-1152,3601,-4553,3554,-56.72,-25.56,9004.109784
69, 2018-07-09 07:15:21,-8192,4402,3185,5740,-2948,687,-56.66,-25.09,9830.0912
70, 2018-07-09 07:15:22,-8192,782,-1459,5943,2093,242,-56.73,-24.65,8357.575546
71, 2018-07-09 07:15:22,-8192,-1976,-258,2994,9355,444,-57.32,-24.39,8430.895801
72, 2018-07-09 07:15:22,-8192,-589,1305,-2711,6155,645,-57.82,-24.46,8316.177608
73, 2018-07-09 07:15:22,-7810,1590,154,-3855,3107,-157,-58.09,-24.63,7971.694676
74, 2018-07-09 07:15:22,-6638,3868,166,-1555,1116,-786,-58.17,-24.66,7684.531476
75, 2018-07-09 07:15:22,-6559,3438,657,1144,-2819,-162,-58.04,-24.52,7434.512358
76, 2018-07-09 07:15:22,-7320,1559,200,3963,-3891,1548,-57.67,-24.11,7486.8472
77, 2018-07-09 07:15:22,-7190,705,335,5068,-2837,1146,-57.49,-23.75,7232.243774
78, 2018-07-09 07:15:22,-6517,655,-42,5230,-765,-233,-57.41,-23.37,6549.967786
79, 2018-07-09 07:15:22,-5247,1134,-111,4498,344,-670,-57.4,-22.85,5369.291015
80, 2018-07-09 07:15:22,-5772,1156,784,3139,-3307,1474,-57.23,-22.57,5938.600509
81, 2018-07-09 07:15:22,-8034,533,240,3275,-4639,2786,-56.79,-22.23,8055.237116
82, 2018-07-09 07:15:22,-8192,734,-512,5110,-973,1928,-56.74,-21.89,8240.738074
83, 2018-07-09 07:15:22,-7885,987,-1082,5901,4783,1223,-57,-21.48,8019.857729
84, 2018-07-09 07:15:22,-6935,421,-930,5314,6568,1510,-57.42,-21.09,7009.733661
85, 2018-07-09 07:15:22,-6650,-161,-840,1878,1382,2280,-57.63,-20.76,6704.775984
86, 2018-07-09 07:15:22,-6890,173,-331,349,-8,936,-57.65,-20.68,6900.115216
87, 2018-07-09 07:15:22,-6908,999,-620,-359,-440,371,-57.64,-20.62,7007.343648
88, 2018-07-09 07:15:22,-6935,1408,-1234,-153,-450,1854,-57.6,-20.58,7183.275367
89, 2018-07-09 07:15:22,-6873,1739,-1461,958,443,2303,-57.63,-20.46,7238.56139
90, 2018-07-09 07:15:22,-6816,2079,-1647,1398,-244,1389,-57.62,-20.31,7313.870795
91, 2018-07-09 07:15:22,-6311,2754,-1449,1736,-1225,808,-57.55,-20.14,7036.535938
92, 2018-07-09 07:15:22,-5446,2946,-759,3040,-2594,1347,-57.38,-19.89,6238.101714
93, 2018-07-09 07:15:22,-5726,1420,-886,5322,-5407,2825,-56.9,-19.35,5965.607429
94, 2018-07-09 07:15:22,-7015,122,-1131,5681,-5564,2825,-56.56,-18.96,7106.635632
95, 2018-07-09 07:15:22,-8192,-812,900,4427,-10865,-603,-56.09,-18.64,8281.196049
96, 2018-07-09 07:15:22,-8192,690,5326,1780,-8934,-5891,-55.58,-18.47,9795.470382
97, 2018-07-09 07:15:22,-8192,3225,4151,-1052,-3928,-6417,-55.32,-18.41,9733.462385
98, 2018-07-09 07:15:22,-8192,3991,761,-1856,5530,-1341,-55.61,-18.44,9144.182085
99, 2018-07-09 07:15:22,-8192,4504,912,-336,8374,800,-56.22,-18.38,9392.902853
100, 2018-07-09 07:15:22,-8192,5590,-98,6590,-5261,-6543,-56.06,-17.99,9917.992136
101, 2018-07-09 07:15:22,-8192,3462,1070,5577,8589,-4398,-56.49,-17.48,8957.634063
102, 2018-07-09 07:15:22,-6228,477,704,502,9201,-750,-57.1,-17.36,6285.787858
103, 2018-07-09 07:15:22,-4519,-799,-541,33,-756,519,-57.22,-17.32,4620.870373
104, 2018-07-09 07:15:22,-4565,-1401,713,374,-8135,3449,-56.85,-17.25,4828.083988
105, 2018-07-09 07:15:22,-6629,-1029,1775,-3666,-12073,2577,-56.12,-17.39,6939.243979
106, 2018-07-09 07:15:22,-8192,582,706,-5891,-3162,2413,-55.9,-17.7,8242.937826
107, 2018-07-09 07:15:22,-8192,1613,625,-8265,-129,1106,-55.94,-18.13,8372.649401
108, 2018-07-09 07:15:22,-7959,2121,-344,-8540,1505,478,-56.06,-18.59,8243.946749
109, 2018-07-09 07:15:22,-7122,2258,-903,-6738,4295,645,-56.3,-18.96,7525.746275
110, 2018-07-09 07:15:22,-7140,1708,-660,-5184,1413,-878,-56.42,-19.23,7371.055827
111, 2018-07-09 07:15:22,-7502,2248,-605,-4408,668,-2709,-56.49,-19.44,7854.905028
112, 2018-07-09 07:15:23,-7458,3131,-642,-3303,1915,-2582,-56.6,-19.58,8114.005731
113, 2018-07-09 07:15:23,-7059,2675,-643,-1867,4301,-1760,-56.85,-19.63,7576.183406
114, 2018-07-09 07:15:23,-6133,927,-878,-1102,5235,-2161,-57.14,-19.64,6264.495351
115, 2018-07-09 07:15:23,-5351,-23,-574,-1168,3351,-2642,-57.36,-19.67,5381.747486
116, 2018-07-09 07:15:23,-5657,555,-1016,-1821,-490,-1765,-57.34,-19.73,5774.247137
117, 2018-07-09 07:15:23,-6000,1478,-1051,-1739,-203,-363,-57.28,-19.79,6268.100589
118, 2018-07-09 07:15:23,-5646,1252,-504,-1616,454,-156,-57.29,-19.82,5805.069853
119, 2018-07-09 07:15:23,-6657,1261,-1605,-2408,-306,-1806,-57.26,-19.9,6962.886973
120, 2018-07-09 07:15:23,-8062,2545,-2944,-2127,316,-3826,-57.32,-19.98,8952.095006
121, 2018-07-09 07:15:23,-6124,941,-253,-975,-425,-3499,-57.31,-19.98,6201.037494
122, 2018-07-09 07:15:23,-4521,-1054,1759,-3303,-1940,-2316,-57.04,-20.11,4964.316469
123, 2018-07-09 07:15:23,-5042,-1064,-765,-6137,-4190,-1664,-56.77,-20.43,5209.518692
124, 2018-07-09 07:15:23,-6763,-1164,-3153,-6022,-106,-3493,-56.71,-20.81,7552.117187
125, 2018-07-09 07:15:23,-6557,-597,851,-7817,-9890,-3902,-56.21,-21.24,6638.889892
126, 2018-07-09 07:15:23,-7260,2536,4935,-10413,-5681,-1182,-55.82,-21.78,9137.457031
127, 2018-07-09 07:15:23,-8192,4542,5771,-9413,-14818,8030,-55.15,-22.25,11001.95751
128, 2018-07-09 07:15:23,-8192,3684,1080,-581,-9149,6791,-54.46,-22.32,9046.939814
129, 2018-07-09 07:15:23,-8192,944,-875,5567,9686,-2236,-54.94,-21.96,8292.504145
130, 2018-07-09 07:15:23,-8192,59,3341,2147,10439,-3790,-55.7,-21.69,8847.294841
131, 2018-07-09 07:15:23,-8192,340,1227,-6413,-2632,4925,-55.77,-21.94,8290.355421
132, 2018-07-09 07:15:23,-8192,2343,-3174,-4432,3179,5743,-55.94,-22.22,9092.457809
133, 2018-07-09 07:15:23,-8192,2945,-737,3089,7749,-380,-56.41,-22.01,8736.42135
134, 2018-07-09 07:15:23,-7581,1891,485,2543,5012,-2625,-56.85,-21.75,7828.324661
135, 2018-07-09 07:15:23,-4918,631,260,-1510,-600,1537,-56.96,-21.76,4965.126887
136, 2018-07-09 07:15:23,-5364,973,-278,1655,-3600,3836,-56.72,-21.65,5458.617865
137, 2018-07-09 07:15:23,-5942,1383,58,3709,-2927,2858,-56.5,-21.38,6101.099655
138, 2018-07-09 07:15:23,-5359,1763,244,4976,-1890,1546,-56.35,-21.02,5646.820876
139, 2018-07-09 07:15:23,-4382,1895,481,5649,-1105,735,-56.24,-20.61,4798.365347
140, 2018-07-09 07:15:23,-6519,882,44,3074,-4205,3403,-55.89,-20.15,6578.542468
141, 2018-07-09 07:15:23,-8192,12,-744,2545,-1010,4194,-55.84,-19.96,8225.724527
142, 2018-07-09 07:15:23,-6574,519,1087,4283,1080,2266,-55.95,-19.53,6683.442676
143, 2018-07-09 07:15:23,-5647,1187,35,4324,533,1354,-55.98,-19.21,5770.511502
144, 2018-07-09 07:15:23,-6394,572,-909,3706,1384,1620,-56.01,-18.93,6483.571624
145, 2018-07-09 07:15:23,-6396,-42,-715,2014,-844,1992,-55.99,-18.74,6435.977393
146, 2018-07-09 07:15:23,-5237,1145,-519,594,120,247,-55.96,-18.59,5385.773389
147, 2018-07-09 07:15:23,-6839,1421,-1866,-108,-2289,581,-55.85,-18.53,7230.015076
148, 2018-07-09 07:15:23,-8192,1416,-2009,-1212,-3626,2041,-55.68,-18.55,8552.777385
149, 2018-07-09 07:15:23,-7883,1971,-701,1141,692,2211,-55.73,-18.46,8155.852561
150, 2018-07-09 07:15:23,-7049,2310,-1245,4284,-17,2310,-55.76,-18.16,7521.603951
151, 2018-07-09 07:15:23,-8192,2392,187,4555,-4707,1104,-55.6,-17.8,8536.128924
152, 2018-07-09 07:15:23,-8192,1702,4930,2357,-10683,-4854,-55.01,-17.57,9711.362829
153, 2018-07-09 07:15:24,-8192,1114,4884,-2407,-11217,-10506,-54.36,-17.58,9602.255777
154, 2018-07-09 07:15:24,-8192,1933,408,-5673,3902,-6020,-54.46,-17.85,8426.850954
155, 2018-07-09 07:15:24,-8192,4854,1964,-6818,6497,-1837,-55.02,-18.15,9722.524158
156, 2018-07-09 07:15:24,-8192,4774,-864,2187,6632,-4083,-55.39,-18.04,9520.84219
157, 2018-07-09 07:15:24,-7301,2699,380,2892,10004,-1702,-56.06,-17.75,7793.176631
158, 2018-07-09 07:15:24,-4601,251,328,3252,3620,3340,-56.48,-17.4,4619.500622
159, 2018-07-09 07:15:24,-4195,-1045,665,1394,-1895,4015,-56.39,-17.26,4374.04561
160, 2018-07-09 07:15:24,-5436,-1370,2585,-3230,-8456,2158,-55.93,-17.39,6173.266639
161, 2018-07-09 07:15:24,-8192,875,547,-6810,-9013,1055,-55.38,-17.74,8256.736522
162, 2018-07-09 07:15:24,-8192,3044,-839,-6755,-861,882,-55.3,-18.08,8779.448787
163, 2018-07-09 07:15:24,-8192,2706,925,-5821,302,-322,-55.36,-18.37,8676.803847
164, 2018-07-09 07:15:24,-7175,1771,-497,-4036,1015,-753,-55.44,-18.58,7407.028757
165, 2018-07-09 07:15:24,-6723,1050,-816,-2770,4031,-1382,-55.66,-18.7,6853.253607
166, 2018-07-09 07:15:24,-6592,896,-200,-2995,424,-2628,-55.73,-18.83,6655.620181
167, 2018-07-09 07:15:24,-7350,1699,-348,-2400,-660,-2982,-55.7,-18.93,7551.834545
168, 2018-07-09 07:15:24,-7427,2473,-1118,-576,1301,-2164,-55.78,-18.92,7907.337226
169, 2018-07-09 07:15:24,-6366,2133,-466,689,2302,-1050,-55.91,-18.82,6729.992645
170, 2018-07-09 07:15:24,-5658,584,625,570,-1294,-1113,-55.88,-18.67,5722.293683
171, 2018-07-09 07:15:24,-6236,905,-276,295,-1082,-1101,-55.8,-18.6,6307.368469
172, 2018-07-09 07:15:24,-6356,2188,-993,877,2471,-547,-55.87,-18.5,6795.007653
173, 2018-07-09 07:15:24,-5931,2778,-843,1769,2744,-216,-56.04,-18.32,6603.385041
174, 2018-07-09 07:15:24,-5743,1622,-213,2239,791,-1052,-56.11,-18.12,5971.457276
175, 2018-07-09 07:15:24,-6209,484,-993,1123,-1005,-2358,-56.03,-17.99,6306.503469
176, 2018-07-09 07:15:24,-7144,-571,-1704,-264,-1125,-2420,-56,-17.96,7366.572677
177, 2018-07-09 07:15:24,-7278,-1289,-457,-2221,-1059,-1644,-55.95,-18.05,7405.380071
178, 2018-07-09 07:15:24,-7317,-1333,-788,-2988,-733,-1770,-55.91,-18.21,7479.058898
179, 2018-07-09 07:15:24,-7337,526,-1763,-3477,-722,-3613,-55.88,-18.38,7564.153224
180, 2018-07-09 07:15:24,-7036,2385,1031,-4916,-5425,-2002,-55.69,-18.59,7500.432121
181, 2018-07-09 07:15:24,-7575,2292,5696,-8192,-6970,4666,-55.37,-18.96,9750.810479
182, 2018-07-09 07:15:24,-8192,2245,4343,-5141,-12296,6047,-54.71,-19.28,9539.944339
183, 2018-07-09 07:15:24,-8192,1963,-792,2164,-1531,-1356,-54.31,-19.16,8461.057676
184, 2018-07-09 07:15:24,-8192,1324,1424,5622,6074,-115,-54.71,-18.79,8419.59714
185, 2018-07-09 07:15:24,-8192,756,-758,1188,2133,4850,-54.99,-18.47,8261.65625
186, 2018-07-09 07:15:24,-8192,2020,-760,1377,6942,3125,-55.45,-18.34,8471.532565
187, 2018-07-09 07:15:24,-7073,3146,-251,3188,3180,1232,-55.71,-18.09,7745.169204
188, 2018-07-09 07:15:24,-5953,1967,668,4158,-4107,-666,-55.57,-17.58,6305.039413
189, 2018-07-09 07:15:24,-6354,772,1266,2954,-6850,934,-55.18,-17.34,6524.726508
190, 2018-07-09 07:15:24,-7704,360,199,4533,-6307,1743,-54.78,-17.06,7714.973558
191, 2018-07-09 07:15:24,-7134,644,181,6511,-595,1039,-54.63,-16.43,7165.295039
192, 2018-07-09 07:15:24,-4673,1143,96,6329,615,-324,-54.63,-15.77,4811.714248
193, 2018-07-09 07:15:24,-5335,922,256,2545,-3095,2249,-54.46,-15.32,5420.133301
194, 2018-07-09 07:15:24,-7549,623,-257,105,-4904,4502,-54.17,-15.26,7579.022298
